#  Wav (A)    log gf    E (l, u) (eV)    rad    stark  waals
   169.14200  -2.200   0.0000  73.3028   0.00   0.00   0.00
   169.74300  -2.140   0.0000  73.0432   0.00   0.00   0.00
   170.80400  -0.810   0.0000  72.5893   0.00   0.00   0.00
   171.39400  -0.920   0.0000  72.3394   0.00   0.00   0.00
   171.90000  -2.460   0.0000  72.1267   0.00   0.00   0.00
   182.24200  -1.620   0.0000  68.0334   0.00   0.00   0.00
   182.97200  -1.890   0.0000  67.7620   0.00   0.00   0.00
   186.51400  -0.420   0.0000  66.4751   0.00   0.00   0.00
   187.19700  -1.130   0.0000  66.2328   0.00   0.00   0.00
   188.53000  -3.040   0.0000  65.7645   0.00   0.00   0.00
   231.73400  -0.760   0.0000  53.5035   0.00   0.00   0.00
   234.26400  -2.020   0.0000  52.9255   0.00   0.00   0.00
   698.10600  -4.200  52.9255  70.6857   0.00   0.00   0.00
   718.95200  -3.010  52.7732  70.0185   0.00   0.00   0.00
   719.29900  -2.540  52.7732  70.0102   0.00   0.00   0.00
   721.24300  -3.640  52.7732  69.9637   0.00   0.00   0.00
   721.59000  -2.180  53.5035  70.6857   0.00   0.00   0.00
   725.35500  -2.780  52.9255  70.0185   0.00   0.00   0.00
   725.70800  -2.200  52.9255  70.0102   0.00   0.00   0.00
   727.63300  -2.410  52.9255  69.9650   0.00   0.00   0.00
   727.68700  -4.160  52.9255  69.9637   0.00   0.00   0.00
   728.33600  -1.750  52.7732  69.7963   0.00   0.00   0.00
   729.96000  -2.780  52.7732  69.7585   0.00   0.00   0.00
   730.57000  -2.450  53.0475  70.0185   0.00   0.00   0.00
   732.62300  -2.030  52.7732  69.6967   0.00   0.00   0.00
   732.93500  -2.180  53.0475  69.9637   0.00   0.00   0.00
   734.43900  -1.330  52.7732  69.6549   0.00   0.00   0.00
   734.90800  -2.140  52.9255  69.7963   0.00   0.00   0.00
   736.56100  -2.120  52.9255  69.7585   0.00   0.00   0.00
   739.27300  -2.020  52.9255  69.6967   0.00   0.00   0.00
   741.93800  -3.050  53.0475  69.7585   0.00   0.00   0.00
   744.34200  -1.880  52.7732  69.4303   0.00   0.00   0.00
   750.74200  -2.090  53.5035  70.0185   0.00   0.00   0.00
   751.12000  -1.690  53.5035  70.0102   0.00   0.00   0.00
   751.20800  -2.290  52.9255  69.4303   0.00   0.00   0.00
   753.24000  -2.150  53.5035  69.9637   0.00   0.00   0.00
   756.80200  -2.930  53.0475  69.4303   0.00   0.00   0.00
   760.98000  -2.100  53.5035  69.7963   0.00   0.00   0.00
   762.75200  -2.400  53.5035  69.7585   0.00   0.00   0.00
   765.66100  -2.440  53.5035  69.6967   0.00   0.00   0.00
   807.47900  -2.080  57.9482  73.3028   0.00   0.00   0.00
   809.02400  -2.270  57.9482  73.2735   0.00   0.00   0.00
   821.36700  -2.020  57.9482  73.0432   0.00   0.00   0.00
   823.78800  -1.450  57.9482  72.9988   0.00   0.00   0.00
   852.08300  -4.690  57.9482  72.4990   0.00   0.00   0.00
   857.88500  -1.760  58.8503  73.3028   0.00   0.00   0.00
   864.17100  -2.060  58.9555  73.3028   0.00   0.00   0.00
   865.94100  -1.610  58.9555  73.2735   0.00   0.00   0.00
   871.72000  -0.890  58.7757  72.9988   0.00   0.00   0.00
   871.87100  -4.170  57.9482  72.1688   0.00   0.00   0.00
   873.57800  -1.350  58.8503  73.0432   0.00   0.00   0.00
   874.46100  -4.270  57.9482  72.1267   0.00   0.00   0.00
   875.74100  -4.690  57.9482  72.1059   0.00   0.00   0.00
   876.31700  -1.530  58.8503  72.9988   0.00   0.00   0.00
   878.85000  -1.540  59.1951  73.3028   0.00   0.00   0.00
   880.09700  -1.730  58.9555  73.0432   0.00   0.00   0.00
   882.87700  -2.530  58.9555  72.9988   0.00   0.00   0.00
   886.16200  -2.000  59.3115  73.3028   0.00   0.00   0.00
   888.02300  -1.930  59.3115  73.2735   0.00   0.00   0.00
   889.88100  -1.350  59.3700  73.3028   0.00   0.00   0.00
   893.21300  -2.060  59.4219  73.3028   0.00   0.00   0.00
   894.73700  -1.560  59.4456  73.3028   0.00   0.00   0.00
   895.32600  -1.360  59.1951  73.0432   0.00   0.00   0.00
   896.63400  -1.880  59.4456  73.2735   0.00   0.00   0.00
   898.20500  -1.770  59.1951  72.9988   0.00   0.00   0.00
   902.91600  -1.590  59.3115  73.0432   0.00   0.00   0.00
   903.50400  -4.370  58.7757  72.4985   0.00   0.00   0.00
   905.84300  -2.230  59.3115  72.9988   0.00   0.00   0.00
   906.77700  -2.790  59.3700  73.0432   0.00   0.00   0.00
   908.40600  -4.850  58.8503  72.4990   0.00   0.00   0.00
   908.44300  -4.300  58.8503  72.4985   0.00   0.00   0.00
   909.72900  -1.370  59.3700  72.9988   0.00   0.00   0.00
   910.23700  -2.040  59.4219  73.0432   0.00   0.00   0.00
   911.82000  -3.160  59.4456  73.0432   0.00   0.00   0.00
   914.80500  -1.930  59.4456  72.9988   0.00   0.00   0.00
   916.37500  -4.190  58.9555  72.4855   0.00   0.00   0.00
   919.23200  -4.730  58.7757  72.2637   0.00   0.00   0.00
   924.34500  -4.460  58.8503  72.2637   0.00   0.00   0.00
   925.13500  -4.850  58.8503  72.2522   0.00   0.00   0.00
   925.22700  -3.550  58.7757  72.1763   0.00   0.00   0.00
   929.06500  -4.380  58.8503  72.1955   0.00   0.00   0.00
   931.98600  -4.900  59.1951  72.4985   0.00   0.00   0.00
   932.45000  -4.740  58.9555  72.2522   0.00   0.00   0.00
   932.89800  -4.950  59.1951  72.4855   0.00   0.00   0.00
   933.77900  -4.550  59.3115  72.5893   0.00   0.00   0.00
   940.17300  -4.330  59.3115  72.4990   0.00   0.00   0.00
   944.36000  -4.380  59.3700  72.4990   0.00   0.00   0.00
   944.40000  -4.050  59.3700  72.4985   0.00   0.00   0.00
   948.73100  -3.960  59.1951  72.2637   0.00   0.00   0.00
   949.56300  -4.640  59.1951  72.2522   0.00   0.00   0.00
   950.81900  -4.510  59.4456  72.4855   0.00   0.00   0.00
   953.70300  -4.110  59.1951  72.1955   0.00   0.00   0.00
   955.66900  -5.000  59.1951  72.1688   0.00   0.00   0.00
   958.10400  -4.800  59.3115  72.2522   0.00   0.00   0.00
   961.58900  -4.590  59.4456  72.3394   0.00   0.00   0.00
   961.59800  -4.340  59.3700  72.2637   0.00   0.00   0.00
   964.32100  -4.420  59.3115  72.1688   0.00   0.00   0.00
   966.70700  -4.370  59.3700  72.1955   0.00   0.00   0.00
   968.13600  -4.390  59.4456  72.2522   0.00   0.00   0.00
   968.72700  -4.840  59.3700  72.1688   0.00   0.00   0.00
   974.48400  -4.860  59.4456  72.1688   0.00   0.00   0.00
   975.90100  -4.700  59.4219  72.1267   0.00   0.00   0.00
  1050.32500  -2.100  61.4983  73.3028   0.00   0.00   0.00
  1073.94400  -2.140  61.4983  73.0432   0.00   0.00   0.00
  1117.89200  -4.630  61.4983  72.5893   0.00   0.00   0.00
  1143.66200  -4.710  61.4983  72.3394   0.00   0.00   0.00
  1229.37400  -1.410  57.9482  68.0334   0.00   0.00   0.00
  1239.83500  -1.390  57.9482  67.9483   0.00   0.00   0.00
  1263.37400  -1.010  57.9482  67.7620   0.00   0.00   0.00
  1267.87200  -1.730  65.7344  75.5134   0.00   0.00   0.00
  1267.95400  -0.580  65.7344  75.5128   0.00   0.00   0.00
  1267.95700  -4.810  65.7344  75.5128   0.00   0.00   0.00
  1271.78100  -1.290  65.7645  75.5134   0.00   0.00   0.00
  1274.82900  -0.570  57.9482  67.6738   0.00   0.00   0.00
  1290.61100  -3.790  65.9061  75.5128   0.00   0.00   0.00
  1290.61600  -4.710  65.9061  75.5128   0.00   0.00   0.00
  1295.04500  -3.390  65.9396  75.5134   0.00   0.00   0.00
  1295.12500  -1.030  65.9396  75.5128   0.00   0.00   0.00
  1295.13000  -2.270  65.9396  75.5128   0.00   0.00   0.00
  1295.13400  -2.620  65.9396  75.5128   0.00   0.00   0.00
  1304.52100  -1.560  65.7344  75.2387   0.00   0.00   0.00
  1304.58900  -0.350  65.7344  75.2382   0.00   0.00   0.00
  1306.48600  -0.990  65.7344  75.2244   0.00   0.00   0.00
  1306.59300  -1.960  65.7344  75.2236   0.00   0.00   0.00
  1308.65900  -1.140  65.7645  75.2387   0.00   0.00   0.00
  1310.19000  -1.600  66.0503  75.5134   0.00   0.00   0.00
  1310.27800  -2.650  66.0503  75.5128   0.00   0.00   0.00
  1310.28100  -0.360  66.0503  75.5128   0.00   0.00   0.00
  1310.63700  -0.600  65.7645  75.2244   0.00   0.00   0.00
  1310.74500  -0.860  65.7645  75.2236   0.00   0.00   0.00
  1314.41800  -2.880  66.0807  75.5134   0.00   0.00   0.00
  1314.50100  -0.350  66.0807  75.5128   0.00   0.00   0.00
  1314.50600  -1.560  66.0807  75.5128   0.00   0.00   0.00
  1314.51000  -1.740  66.0807  75.5128   0.00   0.00   0.00
  1320.12900  -0.770  65.8317  75.2236   0.00   0.00   0.00
  1327.51400  -0.830  65.9061  75.2458   0.00   0.00   0.00
  1327.52600  -2.370  65.9061  75.2457   0.00   0.00   0.00
  1328.59100  -2.110  65.9061  75.2382   0.00   0.00   0.00
  1329.56800  -1.490  65.9061  75.2313   0.00   0.00   0.00
  1329.58400   0.120  65.9061  75.2312   0.00   0.00   0.00
  1332.29100  -1.570  65.9396  75.2458   0.00   0.00   0.00
  1332.30300  -0.890  65.9396  75.2457   0.00   0.00   0.00
  1333.30500  -2.080  65.9396  75.2387   0.00   0.00   0.00
  1333.37600  -2.130  65.9396  75.2382   0.00   0.00   0.00
  1334.36000  -0.040  65.9396  75.2313   0.00   0.00   0.00
  1335.35800  -3.100  65.9396  75.2244   0.00   0.00   0.00
  1335.95500  -0.960  66.2328  75.5134   0.00   0.00   0.00
  1346.37300  -1.890  66.3046  75.5134   0.00   0.00   0.00
  1346.46600  -2.910  66.3046  75.5128   0.00   0.00   0.00
  1346.46900  -0.430  66.3046  75.5128   0.00   0.00   0.00
  1348.33800  -0.500  66.0503  75.2457   0.00   0.00   0.00
  1349.03800  -3.000  66.3228  75.5134   0.00   0.00   0.00
  1349.12500  -0.270  66.3228  75.5128   0.00   0.00   0.00
  1349.13100  -1.700  66.3228  75.5128   0.00   0.00   0.00
  1349.13400  -1.690  66.3228  75.5128   0.00   0.00   0.00
  1349.36400  -1.260  66.0503  75.2387   0.00   0.00   0.00
  1349.43700  -2.410  66.0503  75.2382   0.00   0.00   0.00
  1350.15300  -1.220  58.8503  68.0334   0.00   0.00   0.00
  1351.46600  -3.960  66.0503  75.2244   0.00   0.00   0.00
  1351.58100  -2.510  66.0503  75.2236   0.00   0.00   0.00
  1352.80300  -0.350  66.0807  75.2458   0.00   0.00   0.00
  1352.81600  -4.750  66.0807  75.2457   0.00   0.00   0.00
  1353.71300  -1.430  66.3545  75.5134   0.00   0.00   0.00
  1353.80600  -0.280  66.3545  75.5128   0.00   0.00   0.00
  1353.81000  -4.540  66.3545  75.5128   0.00   0.00   0.00
  1353.84900  -3.010  66.0807  75.2387   0.00   0.00   0.00
  1353.92200  -1.100  66.0807  75.2382   0.00   0.00   0.00
  1354.93600  -0.860  66.0807  75.2313   0.00   0.00   0.00
  1355.96500  -2.320  66.0807  75.2244   0.00   0.00   0.00
  1365.78800  -1.480  58.9555  68.0334   0.00   0.00   0.00
  1371.77000  -0.480  66.4751  75.5134   0.00   0.00   0.00
  1376.70900  -0.550  66.2328  75.2387   0.00   0.00   0.00
  1378.71100  -0.740  58.9555  67.9483   0.00   0.00   0.00
  1378.89800  -1.160  66.2328  75.2244   0.00   0.00   0.00
  1379.01700  -1.550  66.2328  75.2236   0.00   0.00   0.00
  1386.68900  -0.460  66.3046  75.2457   0.00   0.00   0.00
  1387.77500  -1.110  66.3046  75.2387   0.00   0.00   0.00
  1387.85200  -2.270  66.3046  75.2382   0.00   0.00   0.00
  1389.50300  -0.370  66.3228  75.2458   0.00   0.00   0.00
  1389.51600  -1.720  66.3228  75.2457   0.00   0.00   0.00
  1389.99900  -3.930  66.3046  75.2244   0.00   0.00   0.00
  1390.12100  -2.410  66.3046  75.2236   0.00   0.00   0.00
  1390.60600  -2.290  66.3228  75.2387   0.00   0.00   0.00
  1390.68300  -0.990  66.3228  75.2382   0.00   0.00   0.00
  1391.27300  -0.400  58.8503  67.7620   0.00   0.00   0.00
  1391.75400  -2.710  66.3228  75.2313   0.00   0.00   0.00
  1392.83900  -2.220  66.3228  75.2244   0.00   0.00   0.00
  1393.39400  -0.030  58.7757  67.6738   0.00   0.00   0.00
  1395.57400  -1.940  66.3545  75.2387   0.00   0.00   0.00
  1395.65200  -0.730  66.3545  75.2382   0.00   0.00   0.00
  1397.82300  -1.270  66.3545  75.2244   0.00   0.00   0.00
  1397.94600  -2.240  66.3545  75.2236   0.00   0.00   0.00
  1402.82000  -0.500  59.1951  68.0334   0.00   0.00   0.00
  1405.17700  -0.660  58.8503  67.6738   0.00   0.00   0.00
  1407.88200  -0.770  58.9555  67.7620   0.00   0.00   0.00
  1414.77300  -1.370  66.4751  75.2387   0.00   0.00   0.00
  1417.08500  -0.980  66.4751  75.2244   0.00   0.00   0.00
  1417.21100  -2.510  66.4751  75.2236   0.00   0.00   0.00
  1421.54100  -0.920  59.3115  68.0334   0.00   0.00   0.00
  1422.12100  -1.660  58.9555  67.6738   0.00   0.00   0.00
  1431.13500  -0.530  59.3700  68.0334   0.00   0.00   0.00
  1435.54600  -1.060  59.3115  67.9483   0.00   0.00   0.00
  1439.77300  -1.400  59.4219  68.0334   0.00   0.00   0.00
  1443.73700  -0.680  59.4456  68.0334   0.00   0.00   0.00
  1446.25700  -3.020  52.9255  61.4983   0.00   0.00   0.00
  1447.26400  -0.650  59.1951  67.7620   0.00   0.00   0.00
  1454.04800  -2.510  57.9482  66.4751   0.00   0.00   0.00
  1458.18500  -1.020  59.4456  67.9483   0.00   0.00   0.00
  1462.31500  -0.920  59.1951  67.6738   0.00   0.00   0.00
  1467.19900  -0.850  59.3115  67.7620   0.00   0.00   0.00
  1474.90200  -1.820  57.9482  66.3545   0.00   0.00   0.00
  1477.42100  -1.350  59.3700  67.7620   0.00   0.00   0.00
  1482.67000  -1.370  59.3115  67.6738   0.00   0.00   0.00
  1483.71500  -2.650  57.9482  66.3046   0.00   0.00   0.00
  1486.62900  -1.050  59.4219  67.7620   0.00   0.00   0.00
  1490.85500  -3.740  59.4456  67.7620   0.00   0.00   0.00
  1493.11000  -0.520  59.3700  67.6738   0.00   0.00   0.00
  1496.57600  -4.240  57.9482  66.2328   0.00   0.00   0.00
  1506.83200  -1.080  59.4456  67.6738   0.00   0.00   0.00
  1530.28700  -3.920  57.9482  66.0503   0.00   0.00   0.00
  1550.81800  -4.300  53.5035  61.4983   0.00   0.00   0.00
  1572.71300  -0.440  57.9482  65.8317   0.00   0.00   0.00
  1586.24200   0.020  57.9482  65.7645   0.00   0.00   0.00
  1592.36400   0.190  57.9482  65.7344   0.00   0.00   0.00
  1626.09600  -2.320  58.8503  66.4751   0.00   0.00   0.00
  1635.95400  -1.320  58.7757  66.3545   0.00   0.00   0.00
  1642.83500  -0.220  58.7757  66.3228   0.00   0.00   0.00
  1646.80300  -1.500  58.7757  66.3046   0.00   0.00   0.00
  1648.82900  -1.180  58.9555  66.4751   0.00   0.00   0.00
  1652.22100  -0.690  58.8503  66.3545   0.00   0.00   0.00
  1659.23900  -0.840  58.8503  66.3228   0.00   0.00   0.00
  1663.28700  -0.670  58.8503  66.3046   0.00   0.00   0.00
  1675.69600  -1.750  58.9555  66.3545   0.00   0.00   0.00
  1679.46700  -1.010  58.8503  66.2328   0.00   0.00   0.00
  1687.08000  -0.690  58.9555  66.3046   0.00   0.00   0.00
  1697.27400  -0.580  58.7757  66.0807   0.00   0.00   0.00
  1703.10500  -1.280  59.1951  66.4751   0.00   0.00   0.00
  1703.72800  -0.480  58.9555  66.2328   0.00   0.00   0.00
  1704.37600  -1.630  58.7757  66.0503   0.00   0.00   0.00
  1714.78900  -1.040  58.8503  66.0807   0.00   0.00   0.00
  1722.03900  -0.250  58.8503  66.0503   0.00   0.00   0.00
  1730.70600  -0.400  58.7757  65.9396   0.00   0.00   0.00
  1730.77800  -1.950  59.3115  66.4751   0.00   0.00   0.00
  1731.78500  -0.260  59.1951  66.3545   0.00   0.00   0.00
  1738.83400   0.670  58.7757  65.9061   0.00   0.00   0.00
  1739.49600  -1.740  59.1951  66.3228   0.00   0.00   0.00
  1743.94700  -0.830  59.1951  66.3046   0.00   0.00   0.00
  1745.02100  -2.290  59.3700  66.4751   0.00   0.00   0.00
  1747.55500   0.290  58.9555  66.0503   0.00   0.00   0.00
  1748.92100   0.490  58.8503  65.9396   0.00   0.00   0.00
  1757.88000  -0.880  59.4219  66.4751   0.00   0.00   0.00
  1760.40500  -0.410  59.3115  66.3545   0.00   0.00   0.00
  1761.74200  -3.750  59.1951  66.2328   0.00   0.00   0.00
  1763.79300  -1.330  59.4456  66.4751   0.00   0.00   0.00
  1766.36600  -1.010  65.7344  72.7536   0.00   0.00   0.00
  1766.79400   0.130  65.7344  72.7519   0.00   0.00   0.00
  1772.97400  -0.560  59.3115  66.3046   0.00   0.00   0.00
  1773.96200  -0.580  65.7645  72.7536   0.00   0.00   0.00
  1775.14300  -2.640  59.3700  66.3545   0.00   0.00   0.00
  1781.73700  -1.120  58.7757  65.7344   0.00   0.00   0.00
  1783.24600   0.430  59.3700  66.3228   0.00   0.00   0.00
  1787.92400  -0.480  59.3700  66.3046   0.00   0.00   0.00
  1791.37000  -1.160  59.3115  66.2328   0.00   0.00   0.00
  1793.22000  -1.240  58.8503  65.7645   0.00   0.00   0.00
  1794.57200  -0.160  59.4456  66.3545   0.00   0.00   0.00
  1800.65000   0.570  59.1951  66.0807   0.00   0.00   0.00
  1801.04900  -2.670  58.8503  65.7344   0.00   0.00   0.00
  1803.10100  -1.550  58.9555  65.8317   0.00   0.00   0.00
  1806.63300  -1.940  59.3700  66.2328   0.00   0.00   0.00
  1807.63500  -0.430  59.4456  66.3046   0.00   0.00   0.00
  1808.64500  -3.730  59.1951  66.0503   0.00   0.00   0.00
  1810.86900  -3.950  65.9061  72.7528   0.00   0.00   0.00
  1811.05300  -2.400  65.9061  72.7521   0.00   0.00   0.00
  1811.10500  -3.370  65.9061  72.7519   0.00   0.00   0.00
  1819.55500  -2.460  65.9396  72.7536   0.00   0.00   0.00
  1819.77000  -2.120  65.9396  72.7528   0.00   0.00   0.00
  1819.95500  -0.280  65.9396  72.7521   0.00   0.00   0.00
  1820.00800  -1.450  65.9396  72.7519   0.00   0.00   0.00
  1820.41900  -0.240  59.4219  66.2328   0.00   0.00   0.00
  1820.90700  -3.750  58.9555  65.7645   0.00   0.00   0.00
  1826.76100  -0.580  59.4456  66.2328   0.00   0.00   0.00
  1828.97900  -2.600  58.9555  65.7344   0.00   0.00   0.00
  1838.32300  -0.490  59.1951  65.9396   0.00   0.00   0.00
  1838.47500  -0.750  65.7344  72.4783   0.00   0.00   0.00
  1838.71900   0.440  65.7344  72.4774   0.00   0.00   0.00
  1839.88600  -1.580  59.3115  66.0503   0.00   0.00   0.00
  1845.83900  -0.230  65.7344  72.4514   0.00   0.00   0.00
  1846.12500  -1.200  65.7344  72.4504   0.00   0.00   0.00
  1846.70500  -0.330  65.7645  72.4783   0.00   0.00   0.00
  1847.57200  -0.700  59.3700  66.0807   0.00   0.00   0.00
  1849.59500  -0.780  66.0503  72.7536   0.00   0.00   0.00
  1849.81700   0.370  66.0503  72.7528   0.00   0.00   0.00
  1850.06300  -1.920  66.0503  72.7519   0.00   0.00   0.00
  1854.13500   0.160  65.7645  72.4514   0.00   0.00   0.00
  1854.42400  -0.100  65.7645  72.4504   0.00   0.00   0.00
  1855.99000  -3.470  59.3700  66.0503   0.00   0.00   0.00
  1858.03200  -2.090  66.0807  72.7536   0.00   0.00   0.00
  1858.19400  -0.690  52.7732  59.4456   0.00   0.00   0.00
  1858.25600  -0.990  66.0807  72.7528   0.00   0.00   0.00
  1858.44900   0.380  66.0807  72.7521   0.00   0.00   0.00
  1858.50500  -0.720  66.0807  72.7519   0.00   0.00   0.00
  1873.26300  -0.010  65.8317  72.4504   0.00   0.00   0.00
  1877.24000  -1.710  59.4456  66.0503   0.00   0.00   0.00
  1879.49400  -0.120  52.7732  59.3700   0.00   0.00   0.00
  1882.31000  -0.070  65.9061  72.4930   0.00   0.00   0.00
  1882.35600  -1.610  65.9061  72.4928   0.00   0.00   0.00
  1886.76000  -1.360  65.9061  72.4774   0.00   0.00   0.00
  1887.25500  -1.470  59.3700  65.9396   0.00   0.00   0.00
  1887.33000  -1.230  59.1951  65.7645   0.00   0.00   0.00
  1890.34100  -0.740  65.9061  72.4650   0.00   0.00   0.00
  1890.38100   0.880  65.9061  72.4649   0.00   0.00   0.00
  1891.92900  -0.740  65.9396  72.4930   0.00   0.00   0.00
  1891.97600  -0.120  65.9396  72.4928   0.00   0.00   0.00
  1896.00400  -0.730  59.1951  65.7344   0.00   0.00   0.00
  1896.16600  -1.320  65.9396  72.4783   0.00   0.00   0.00
  1896.30300  -1.000  52.7732  59.3115   0.00   0.00   0.00
  1896.42500  -1.410  65.9396  72.4774   0.00   0.00   0.00
  1897.22400  -1.160  61.4983  68.0334   0.00   0.00   0.00
  1900.04300   0.710  65.9396  72.4650   0.00   0.00   0.00
  1901.36100  -0.140  66.2328  72.7536   0.00   0.00   0.00
  1901.56000  -1.250  59.3115  65.8317   0.00   0.00   0.00
  1901.57800  -0.770  52.9255  59.4456   0.00   0.00   0.00
  1904.00000  -2.370  65.9396  72.4514   0.00   0.00   0.00
  1908.49900  -0.540  52.9255  59.4219   0.00   0.00   0.00
  1921.37400  -1.160  59.3115  65.7645   0.00   0.00   0.00
  1922.53300  -1.240  66.3046  72.7536   0.00   0.00   0.00
  1922.77400   0.350  66.3046  72.7528   0.00   0.00   0.00
  1923.04000  -2.390  66.3046  72.7519   0.00   0.00   0.00
  1923.89100  -0.420  52.9255  59.3700   0.00   0.00   0.00
  1924.47600   0.290  66.0503  72.4928   0.00   0.00   0.00
  1927.97100  -2.340  66.3228  72.7536   0.00   0.00   0.00
  1928.21300  -0.910  66.3228  72.7528   0.00   0.00   0.00
  1928.42100   0.510  66.3228  72.7521   0.00   0.00   0.00
  1928.48000  -1.030  66.3228  72.7519   0.00   0.00   0.00
  1928.81100  -0.530  66.0503  72.4783   0.00   0.00   0.00
  1929.07900  -1.680  66.0503  72.4774   0.00   0.00   0.00
  1930.36400  -1.340  59.3115  65.7344   0.00   0.00   0.00
  1930.67300  -0.550  52.7732  59.1951   0.00   0.00   0.00
  1933.56300   0.440  66.0807  72.4930   0.00   0.00   0.00
  1936.91800  -3.000  66.0503  72.4514   0.00   0.00   0.00
  1937.23400  -1.750  66.0503  72.4504   0.00   0.00   0.00
  1937.53400  -0.650  66.3545  72.7536   0.00   0.00   0.00
  1937.83800  -0.640  53.0475  59.4456   0.00   0.00   0.00
  1937.98800  -2.280  66.0807  72.4783   0.00   0.00   0.00
  1938.04800   0.500  66.3545  72.7519   0.00   0.00   0.00
  1938.25900  -0.370  66.0807  72.4774   0.00   0.00   0.00
  1938.94300  -0.790  59.3700  65.7645   0.00   0.00   0.00
  1941.48700  -0.960  59.4456  65.8317   0.00   0.00   0.00
  1941.50600  -1.670  52.9255  59.3115   0.00   0.00   0.00
  1942.03800  -0.090  66.0807  72.4650   0.00   0.00   0.00
  1946.17300  -1.570  66.0807  72.4514   0.00   0.00   0.00
  1948.09900  -0.220  59.3700  65.7344   0.00   0.00   0.00
  1954.83200  -0.810  59.4219  65.7645   0.00   0.00   0.00
  1962.14600  -1.060  59.4456  65.7645   0.00   0.00   0.00
  1971.52300  -0.820  59.4456  65.7344   0.00   0.00   0.00
  1974.73900   0.260  66.4751  72.7536   0.00   0.00   0.00
  1977.55100  -0.950  52.9255  59.1951   0.00   0.00   0.00
  1979.32000  -0.700  53.0475  59.3115   0.00   0.00   0.00
  1979.43400  -1.540  61.4983  67.7620   0.00   0.00   0.00
  1985.17500   0.170  66.2328  72.4783   0.00   0.00   0.00
  1993.76400  -0.380  66.2328  72.4514   0.00   0.00   0.00
  1994.09700  -0.800  66.2328  72.4504   0.00   0.00   0.00
  2002.91800   0.260  66.3046  72.4928   0.00   0.00   0.00
  2004.86200  -1.330  52.7732  58.9555   0.00   0.00   0.00
  2007.61700  -0.340  66.3046  72.4783   0.00   0.00   0.00
  2007.90700  -1.490  66.3046  72.4774   0.00   0.00   0.00
  2008.77100   0.350  66.3228  72.4930   0.00   0.00   0.00
  2008.82300  -1.000  66.3228  72.4928   0.00   0.00   0.00
  2013.55000  -1.510  66.3228  72.4783   0.00   0.00   0.00
  2013.84200  -0.220  66.3228  72.4774   0.00   0.00   0.00
  2016.40500  -2.980  66.3046  72.4514   0.00   0.00   0.00
  2016.74700  -1.660  66.3046  72.4504   0.00   0.00   0.00
  2017.92400  -2.020  66.3228  72.4650   0.00   0.00   0.00
  2022.39000  -1.480  66.3228  72.4514   0.00   0.00   0.00
  2023.98800  -1.240  66.3545  72.4783   0.00   0.00   0.00
  2024.28300  -0.050  66.3545  72.4774   0.00   0.00   0.00
  2032.92000  -0.520  66.3545  72.4514   0.00   0.00   0.00
  2033.26800  -1.490  66.3545  72.4504   0.00   0.00   0.00
  2039.54900  -0.340  52.7732  58.8503   0.00   0.00   0.00
  2055.48300  -0.420  52.9255  58.9555   0.00   0.00   0.00
  2064.64100  -0.530  66.4751  72.4783   0.00   0.00   0.00
  2064.90500   0.290  52.7732  58.7757   0.00   0.00   0.00
  2073.93700  -0.230  66.4751  72.4514   0.00   0.00   0.00
  2074.29800  -1.760  66.4751  72.4504   0.00   0.00   0.00
  2085.88600  -2.060  53.5035  59.4456   0.00   0.00   0.00
  2091.95900  -0.030  52.9255  58.8503   0.00   0.00   0.00
  2094.22000  -1.830  53.5035  59.4219   0.00   0.00   0.00
  2097.93400  -0.430  53.0475  58.9555   0.00   0.00   0.00
  2112.77600  -0.440  53.5035  59.3700   0.00   0.00   0.00
  2134.04900  -2.970  53.5035  59.3115   0.00   0.00   0.00
  2177.69600   0.000  53.5035  59.1951   0.00   0.00   0.00
  2273.42500  -1.720  53.5035  58.9555   0.00   0.00   0.00
  2318.12800  -2.890  53.5035  58.8503   0.00   0.00   0.00
  2395.15700  -0.350  52.7732  57.9482   0.00   0.00   0.00
  2467.75600  -0.690  52.9255  57.9482   0.00   0.00   0.00
  2490.53500  -3.630  61.4983  66.4751   0.00   0.00   0.00
  2518.62900  -3.400  65.7645  70.6857   0.00   0.00   0.00
  2529.19400  -1.190  53.0475  57.9482   0.00   0.00   0.00
  2618.00700  -2.990  61.4983  66.2328   0.00   0.00   0.00
  2783.52300  -1.660  66.2328  70.6857   0.00   0.00   0.00
  2788.69400  -2.000  53.5035  57.9482   0.00   0.00   0.00
  2893.22300  -1.040  65.7344  70.0185   0.00   0.00   0.00
  2898.84400  -1.030  65.7344  70.0102   0.00   0.00   0.00
  2905.40700  -3.580  61.4983  65.7645   0.00   0.00   0.00
  2913.66400  -2.000  65.7645  70.0185   0.00   0.00   0.00
  2919.36500  -1.880  65.7645  70.0102   0.00   0.00   0.00
  2930.69700  -1.760  65.7344  69.9637   0.00   0.00   0.00
  2943.71100  -0.530  66.4751  70.6857   0.00   0.00   0.00
  2950.78400  -1.230  65.7645  69.9650   0.00   0.00   0.00
  2951.67200  -1.820  65.7645  69.9637   0.00   0.00   0.00
  2960.45700  -1.670  65.8317  70.0185   0.00   0.00   0.00
  2999.70500  -2.450  65.8317  69.9637   0.00   0.00   0.00
  3044.97000  -2.260  65.9396  70.0102   0.00   0.00   0.00
  3051.49400  -0.630  65.7344  69.7963   0.00   0.00   0.00
  3074.24200  -1.150  65.7645  69.7963   0.00   0.00   0.00
  3080.20000  -1.720  65.7344  69.7585   0.00   0.00   0.00
  3103.37800  -2.330  65.7645  69.7585   0.00   0.00   0.00
  3128.21000  -2.010  65.7344  69.6967   0.00   0.00   0.00
  3130.07100  -1.870  66.0503  70.0102   0.00   0.00   0.00
  3152.12000  -1.540  65.7645  69.6967   0.00   0.00   0.00
  3154.31800  -0.310  66.0807  70.0102   0.00   0.00   0.00
  3156.51900  -1.600  65.8317  69.7585   0.00   0.00   0.00
  3161.59000  -1.580  65.7344  69.6549   0.00   0.00   0.00
  3167.24000  -0.700  66.0503  69.9637   0.00   0.00   0.00
  3200.75500  -1.310  69.4303  73.3028   0.00   0.00   0.00
  3213.84400  -1.580  65.9396  69.7963   0.00   0.00   0.00
  3225.17700  -1.460  69.4303  73.2735   0.00   0.00   0.00
  3274.10500  -1.510  66.2328  70.0185   0.00   0.00   0.00
  3299.05300   0.000  65.9396  69.6967   0.00   0.00   0.00
  3306.39700   0.190  65.9061  69.6549   0.00   0.00   0.00
  3308.79300  -2.910  66.0503  69.7963   0.00   0.00   0.00
  3321.05000  -0.690  66.2328  69.9650   0.00   0.00   0.00
  3322.17500  -2.660  66.2328  69.9637   0.00   0.00   0.00
  3335.90000  -0.200  66.0807  69.7963   0.00   0.00   0.00
  3336.20100  -0.890  65.9396  69.6549   0.00   0.00   0.00
  3337.41500  -4.140  66.3046  70.0185   0.00   0.00   0.00
  3342.57000  -0.360  66.0503  69.7585   0.00   0.00   0.00
  3344.89600  -1.070  66.3046  70.0102   0.00   0.00   0.00
  3353.73900  -0.400  65.7344  69.4303   0.00   0.00   0.00
  3361.39600  -0.170  66.3228  70.0102   0.00   0.00   0.00
  3381.23500  -0.500  65.7645  69.4303   0.00   0.00   0.00
  3382.89400  -0.260  66.3545  70.0185   0.00   0.00   0.00
  3387.37600  -0.290  66.3046  69.9637   0.00   0.00   0.00
  3390.58200  -1.360  66.3545  70.0102   0.00   0.00   0.00
  3399.18200  -0.820  66.0503  69.6967   0.00   0.00   0.00
  3427.79600  -2.740  66.0807  69.6967   0.00   0.00   0.00
  3430.76100  -0.910  69.4303  73.0432   0.00   0.00   0.00
  3434.23800  -2.890  66.3545  69.9637   0.00   0.00   0.00
  3437.26000  -1.360  69.6967  73.3028   0.00   0.00   0.00
  3438.63200  -2.150  66.0503  69.6549   0.00   0.00   0.00
  3444.41400  -0.940  65.8317  69.4303   0.00   0.00   0.00
  3467.91700  -1.100  66.0807  69.6549   0.00   0.00   0.00
  3473.42300  -0.290  69.4303  72.9988   0.00   0.00   0.00
  3478.25700  -2.620  66.2328  69.7963   0.00   0.00   0.00
  3497.15400  -2.020  69.7585  73.3028   0.00   0.00   0.00
  3497.99800  -0.920  66.4751  70.0185   0.00   0.00   0.00
  3506.21800  -2.090  66.4751  70.0102   0.00   0.00   0.00
  3515.60200  -0.730  66.2328  69.7585   0.00   0.00   0.00
  3526.32900  -1.190  69.7585  73.2735   0.00   0.00   0.00
  3534.90800  -1.450  69.7963  73.3028   0.00   0.00   0.00
  3549.79400  -4.590  66.3046  69.7963   0.00   0.00   0.00
  3551.63600  -1.970  66.4751  69.9650   0.00   0.00   0.00
  3552.92300  -1.160  66.4751  69.9637   0.00   0.00   0.00
  3568.38300  -0.530  66.3228  69.7963   0.00   0.00   0.00
  3578.28200  -1.550  66.2328  69.6967   0.00   0.00   0.00
  3588.69900  -1.030  66.3046  69.7585   0.00   0.00   0.00
  3601.29100  -0.860  66.3545  69.7963   0.00   0.00   0.00
  3641.33900  -1.650  66.3545  69.7585   0.00   0.00   0.00
  3654.03700  -0.970  66.3046  69.6967   0.00   0.00   0.00
  3659.84200  -1.230  72.1267  75.5134   0.00   0.00   0.00
  3673.73600  -4.010  66.3228  69.6967   0.00   0.00   0.00
  3699.66300  -2.060  66.3046  69.6549   0.00   0.00   0.00
  3703.92600  -0.150  69.6967  73.0432   0.00   0.00   0.00
  3705.93100  -1.790  72.1688  75.5134   0.00   0.00   0.00
  3706.63100  -0.650  72.1688  75.5128   0.00   0.00   0.00
  3706.65900  -4.630  72.1688  75.5128   0.00   0.00   0.00
  3706.74100   0.190  69.6549  72.9988   0.00   0.00   0.00
  3708.62500  -1.540  66.3545  69.6967   0.00   0.00   0.00
  3712.15100  -0.630  69.9637  73.3028   0.00   0.00   0.00
  3713.55700  -1.030  69.9650  73.3028   0.00   0.00   0.00
  3714.91000  -3.110  72.1763  75.5128   0.00   0.00   0.00
  3714.95100  -4.060  72.1763  75.5128   0.00   0.00   0.00
  3714.97900  -4.680  72.1763  75.5128   0.00   0.00   0.00
  3719.85800  -0.780  66.3228  69.6549   0.00   0.00   0.00
  3732.02300  -2.170  66.4751  69.7963   0.00   0.00   0.00
  3735.80300  -3.360  72.1955  75.5134   0.00   0.00   0.00
  3736.47300  -1.330  72.1955  75.5128   0.00   0.00   0.00
  3736.51500  -2.460  72.1955  75.5128   0.00   0.00   0.00
  3736.54300  -3.480  72.1955  75.5128   0.00   0.00   0.00
  3745.03900  -0.350  69.9637  73.2735   0.00   0.00   0.00
  3753.70200  -0.320  69.6967  72.9988   0.00   0.00   0.00
  3755.63400  -1.900  66.3545  69.6549   0.00   0.00   0.00
  3764.54400   0.040  70.0102  73.3028   0.00   0.00   0.00
  3773.56700  -0.270  69.7585  73.0432   0.00   0.00   0.00
  3774.06600  -0.390  70.0185  73.3028   0.00   0.00   0.00
  3775.04900  -2.050  66.4751  69.7585   0.00   0.00   0.00
  3800.74000  -1.790  72.2522  75.5134   0.00   0.00   0.00
  3801.47700  -2.940  72.2522  75.5128   0.00   0.00   0.00
  3801.50600  -0.880  72.2522  75.5128   0.00   0.00   0.00
  3808.06600  -0.680  70.0185  73.2735   0.00   0.00   0.00
  3814.13900  -3.200  72.2637  75.5134   0.00   0.00   0.00
  3814.83700  -1.110  72.2637  75.5128   0.00   0.00   0.00
  3814.88100  -1.840  72.2637  75.5128   0.00   0.00   0.00
  3814.91000  -2.450  72.2637  75.5128   0.00   0.00   0.00
  3817.56100  -0.350  69.7963  73.0432   0.00   0.00   0.00
  3825.24500  -0.970  69.7585  72.9988   0.00   0.00   0.00
  3847.41600  -4.080  66.4751  69.6967   0.00   0.00   0.00
  3870.46000  -0.230  69.7963  72.9988   0.00   0.00   0.00
  3876.46300  -3.730  66.2328  69.4303   0.00   0.00   0.00
  3905.14400  -0.930  72.3394  75.5134   0.00   0.00   0.00
  3923.67400  -2.150  69.4303  72.5893   0.00   0.00   0.00
  3975.71400  -0.130  72.1059  75.2236   0.00   0.00   0.00
  3982.93700  -0.410  72.1267  75.2387   0.00   0.00   0.00
  4001.31800   0.040  72.1267  75.2244   0.00   0.00   0.00
  4002.32700  -0.180  72.1267  75.2236   0.00   0.00   0.00
  4025.11400  -1.500  69.9637  73.0432   0.00   0.00   0.00
  4026.76700  -0.830  69.9650  73.0432   0.00   0.00   0.00
  4029.90000  -2.370  66.3545  69.4303   0.00   0.00   0.00
  4037.58200  -0.790  72.1688  75.2387   0.00   0.00   0.00
  4038.03900  -3.960  72.4514  75.5210   0.00   0.00   0.00
  4038.12100  -0.190  72.1763  75.2458   0.00   0.00   0.00
  4038.23500   0.410  72.1688  75.2382   0.00   0.00   0.00
  4038.23500  -1.730  72.1763  75.2457   0.00   0.00   0.00
  4039.13200  -0.940  69.4303  72.4990   0.00   0.00   0.00
  4048.11200  -1.480  72.1763  75.2382   0.00   0.00   0.00
  4055.78100  -4.850  72.4649  75.5210   0.00   0.00   0.00
  4055.81400  -3.630  72.4649  75.5210   0.00   0.00   0.00
  4055.96200  -4.890  72.4650  75.5210   0.00   0.00   0.00
  4055.99500  -3.780  72.4650  75.5210   0.00   0.00   0.00
  4055.99500  -4.000  72.4650  75.5210   0.00   0.00   0.00
  4056.47200  -0.200  72.1688  75.2244   0.00   0.00   0.00
  4057.19700  -0.860  72.1763  75.2313   0.00   0.00   0.00
  4057.34500   0.760  72.1763  75.2312   0.00   0.00   0.00
  4057.51000  -1.170  72.1688  75.2236   0.00   0.00   0.00
  4063.61200  -1.180  72.1955  75.2458   0.00   0.00   0.00
  4063.72800  -0.230  72.1955  75.2457   0.00   0.00   0.00
  4072.55100  -1.240  72.4774  75.5210   0.00   0.00   0.00
  4072.55100  -2.670  72.4774  75.5210   0.00   0.00   0.00
  4073.06600  -1.430  72.1955  75.2387   0.00   0.00   0.00
  4073.73000  -1.630  72.1955  75.2382   0.00   0.00   0.00
  4073.74600  -1.400  72.4783  75.5210   0.00   0.00   0.00
  4082.93000   0.630  72.1955  75.2313   0.00   0.00   0.00
  4083.96500  -1.870  69.9637  72.9988   0.00   0.00   0.00
  4086.78600  -3.610  70.0102  73.0432   0.00   0.00   0.00
  4092.29000  -2.560  72.1955  75.2244   0.00   0.00   0.00
  4093.22800  -2.500  72.4928  75.5210   0.00   0.00   0.00
  4093.22800  -3.960  72.4928  75.5210   0.00   0.00   0.00
  4093.26200  -1.580  72.4928  75.5210   0.00   0.00   0.00
  4093.44600  -2.390  72.4930  75.5210   0.00   0.00   0.00
  4093.44600  -3.940  72.4930  75.5210   0.00   0.00   0.00
  4093.48000  -1.500  72.4930  75.5210   0.00   0.00   0.00
  4093.48000  -3.140  72.4930  75.5210   0.00   0.00   0.00
  4093.51300  -0.830  72.4855  75.5134   0.00   0.00   0.00
  4094.36800  -1.850  72.4855  75.5128   0.00   0.00   0.00
  4094.40200   0.520  72.4855  75.5128   0.00   0.00   0.00
  4098.01000  -3.180  70.0185  73.0432   0.00   0.00   0.00
  4111.17200  -1.980  72.4985  75.5134   0.00   0.00   0.00
  4111.93300  -0.650  72.4990  75.5134   0.00   0.00   0.00
  4111.98400   0.650  72.4985  75.5128   0.00   0.00   0.00
  4112.03500  -0.680  72.4985  75.5128   0.00   0.00   0.00
  4112.06900  -0.770  72.4985  75.5128   0.00   0.00   0.00
  4112.79600   0.500  72.4990  75.5128   0.00   0.00   0.00
  4112.83000  -3.900  72.4990  75.5128   0.00   0.00   0.00
  4140.68200   0.450  72.2522  75.2457   0.00   0.00   0.00
  4147.46800  -1.350  70.0102  72.9988   0.00   0.00   0.00
  4150.37800  -0.260  72.2522  75.2387   0.00   0.00   0.00
  4151.06700  -1.420  72.2522  75.2382   0.00   0.00   0.00
  4156.46900   0.580  72.2637  75.2458   0.00   0.00   0.00
  4156.59000  -1.340  72.2637  75.2457   0.00   0.00   0.00
  4159.02800  -1.070  70.0185  72.9988   0.00   0.00   0.00
  4166.36000  -1.630  72.2637  75.2387   0.00   0.00   0.00
  4167.05500  -0.120  72.2637  75.2382   0.00   0.00   0.00
  4170.34000  -3.090  72.2522  75.2244   0.00   0.00   0.00
  4171.43700  -1.530  72.2522  75.2236   0.00   0.00   0.00
  4176.68300  -0.740  72.2637  75.2313   0.00   0.00   0.00
  4186.47800  -1.340  72.2637  75.2244   0.00   0.00   0.00
  4194.31100  -2.820  66.4751  69.4303   0.00   0.00   0.00
  4238.91500   0.290  72.5893  75.5134   0.00   0.00   0.00
  4239.47300  -0.930  67.7620  70.6857   0.00   0.00   0.00
  4260.75800  -2.200  69.4303  72.3394   0.00   0.00   0.00
  4275.18900   0.110  72.3394  75.2387   0.00   0.00   0.00
  4285.10300  -2.170  69.6967  72.5893   0.00   0.00   0.00
  4296.37300  -0.210  72.3394  75.2244   0.00   0.00   0.00
  4297.53700  -1.210  72.3394  75.2236   0.00   0.00   0.00
  4358.12500  -1.780  69.6549  72.4990   0.00   0.00   0.00
  4358.98000  -1.180  69.6549  72.4985   0.00   0.00   0.00
  4378.58700  -2.410  69.7585  72.5893   0.00   0.00   0.00
  4379.00900  -2.400  69.6549  72.4855   0.00   0.00   0.00
  4423.18400  -0.990  69.6967  72.4990   0.00   0.00   0.00
  4424.06500  -0.800  69.6967  72.4985   0.00   0.00   0.00
  4434.78100  -2.440  72.4514  75.2464   0.00   0.00   0.00
  4437.93100  -1.770  69.7963  72.5893   0.00   0.00   0.00
  4443.94800   0.610  72.4504  75.2396   0.00   0.00   0.00
  4444.69800  -2.080  69.6967  72.4855   0.00   0.00   0.00
  4445.60800  -0.320  72.4514  75.2396   0.00   0.00   0.00
  4445.60800   0.800  72.4514  75.2396   0.00   0.00   0.00
  4452.26000  -0.030  72.4649  75.2489   0.00   0.00   0.00
  4452.26000  -1.760  72.4649  75.2489   0.00   0.00   0.00
  4452.47800  -0.110  72.4650  75.2489   0.00   0.00   0.00
  4452.47800  -2.020  72.4650  75.2489   0.00   0.00   0.00
  4456.19000  -1.560  72.4649  75.2464   0.00   0.00   0.00
  4456.40800  -1.650  72.4650  75.2464   0.00   0.00   0.00
  4456.40800  -3.750  72.4650  75.2464   0.00   0.00   0.00
  4463.31200  -0.680  72.4649  75.2420   0.00   0.00   0.00
  4463.31200   1.130  72.4649  75.2420   0.00   0.00   0.00
  4463.53100   1.050  72.4650  75.2420   0.00   0.00   0.00
  4476.28200  -0.480  72.7519  75.5210   0.00   0.00   0.00
  4476.28200   0.950  72.7519  75.5210   0.00   0.00   0.00
  4476.44300  -0.530  72.4774  75.2464   0.00   0.00   0.00
  4476.44300   0.900  72.4774  75.2464   0.00   0.00   0.00
  4476.60300  -0.490  72.7521  75.5210   0.00   0.00   0.00
  4476.60300  -2.040  72.7521  75.5210   0.00   0.00   0.00
  4476.64300  -0.590  72.7521  75.5210   0.00   0.00   0.00
  4476.64300   1.060  72.7521  75.5210   0.00   0.00   0.00
  4477.72600  -0.600  72.7528  75.5210   0.00   0.00   0.00
  4477.72600  -2.050  72.7528  75.5210   0.00   0.00   0.00
  4477.76600   0.960  72.7528  75.5210   0.00   0.00   0.00
  4477.88600   0.770  72.4783  75.2464   0.00   0.00   0.00
  4479.03000   0.820  72.7536  75.5210   0.00   0.00   0.00
  4487.47400  -0.030  72.4774  75.2396   0.00   0.00   0.00
  4487.47400  -1.330  72.4774  75.2396   0.00   0.00   0.00
  4488.92500  -0.200  72.4783  75.2396   0.00   0.00   0.00
  4488.92500  -1.110  72.4783  75.2396   0.00   0.00   0.00
  4490.57900  -1.050  72.4855  75.2457   0.00   0.00   0.00
  4497.42700   0.920  72.4928  75.2489   0.00   0.00   0.00
  4497.69000  -0.640  72.4930  75.2489   0.00   0.00   0.00
  4497.69000   1.020  72.4930  75.2489   0.00   0.00   0.00
  4501.43700  -0.030  72.4928  75.2464   0.00   0.00   0.00
  4501.43700  -1.460  72.4928  75.2464   0.00   0.00   0.00
  4501.70000   0.090  72.4930  75.2464   0.00   0.00   0.00
  4501.70000  -1.460  72.4930  75.2464   0.00   0.00   0.00
  4501.98400  -1.500  72.4855  75.2387   0.00   0.00   0.00
  4502.79500  -2.690  72.4855  75.2382   0.00   0.00   0.00
  4508.96900  -2.920  72.4930  75.2420   0.00   0.00   0.00
  4511.69600  -1.220  72.4985  75.2458   0.00   0.00   0.00
  4511.83800  -2.090  72.4985  75.2457   0.00   0.00   0.00
  4512.59200  -1.580  72.4928  75.2396   0.00   0.00   0.00
  4512.59200  -2.880  72.4928  75.2396   0.00   0.00   0.00
  4512.85700  -1.450  72.4930  75.2396   0.00   0.00   0.00
  4522.86100  -1.360  69.7585  72.4990   0.00   0.00   0.00
  4523.35200  -2.690  72.4985  75.2387   0.00   0.00   0.00
  4524.17100  -1.560  72.4985  75.2382   0.00   0.00   0.00
  4524.27300  -2.050  72.4990  75.2387   0.00   0.00   0.00
  4525.09300  -0.860  72.4990  75.2382   0.00   0.00   0.00
  4526.21900   0.260  69.4303  72.1688   0.00   0.00   0.00
  4526.77300  -2.870  72.4855  75.2236   0.00   0.00   0.00
  4535.52200  -1.800  72.4985  75.2313   0.00   0.00   0.00
  4545.35800  -0.960  69.7585  72.4855   0.00   0.00   0.00
  4547.07400  -2.870  72.4985  75.2244   0.00   0.00   0.00
  4548.00500  -1.290  72.4990  75.2244   0.00   0.00   0.00
  4549.30900  -2.240  72.4990  75.2236   0.00   0.00   0.00
  4586.20800  -0.710  69.7963  72.4990   0.00   0.00   0.00
  4587.15500  -2.190  69.7963  72.4985   0.00   0.00   0.00
  4596.92100   0.180  69.4303  72.1267   0.00   0.00   0.00
  4609.34100  -2.860  69.7963  72.4855   0.00   0.00   0.00
  4632.53700  -0.240  69.4303  72.1059   0.00   0.00   0.00
  4673.31500  -0.350  68.0334  70.6857   0.00   0.00   0.00
  4678.47600  -1.540  72.5893  75.2387   0.00   0.00   0.00
  4690.35100  -0.950  69.6967  72.3394   0.00   0.00   0.00
  4703.85800  -0.990  72.5893  75.2244   0.00   0.00   0.00
  4705.25200  -2.030  72.5893  75.2236   0.00   0.00   0.00
  4720.91700  -0.490  69.9637  72.5893   0.00   0.00   0.00
  4723.19200  -0.460  69.9650  72.5893   0.00   0.00   0.00
  4736.23800  -0.940  70.6857  73.3028   0.00   0.00   0.00
  4751.29700   0.070  69.6549  72.2637   0.00   0.00   0.00
  4772.25400  -1.130  69.6549  72.2522   0.00   0.00   0.00
  4802.58500  -0.020  69.7585  72.3394   0.00   0.00   0.00
  4805.97900  -1.300  70.0102  72.5893   0.00   0.00   0.00
  4821.50900  -0.190  70.0185  72.5893   0.00   0.00   0.00
  4828.72900  -2.020  69.6967  72.2637   0.00   0.00   0.00
  4850.37600   0.110  69.6967  72.2522   0.00   0.00   0.00
  4874.07100  -3.860  69.7963  72.3394   0.00   0.00   0.00
  4878.73300  -0.260  69.6549  72.1955   0.00   0.00   0.00
  4889.06500  -1.450  69.9637  72.4990   0.00   0.00   0.00
  4915.36300   0.520  69.9637  72.4855   0.00   0.00   0.00
  4915.99100   0.830  69.6549  72.1763   0.00   0.00   0.00
  4930.63600  -0.800  69.6549  72.1688   0.00   0.00   0.00
  4960.41000   0.650  69.6967  72.1955   0.00   0.00   0.00
  4964.57300  -1.650  72.7521  75.2489   0.00   0.00   0.00
  4964.57300  -3.240  72.7521  75.2489   0.00   0.00   0.00
  4965.95400  -1.730  72.7528  75.2489   0.00   0.00   0.00
  4969.06400  -1.400  72.7519  75.2464   0.00   0.00   0.00
  4969.06400  -2.830  72.7519  75.2464   0.00   0.00   0.00
  4969.45900  -2.190  72.7521  75.2464   0.00   0.00   0.00
  4969.45900  -3.720  72.7521  75.2464   0.00   0.00   0.00
  4970.49700   0.380  69.7585  72.2522   0.00   0.00   0.00
  4970.84300  -2.300  72.7528  75.2464   0.00   0.00   0.00
  4970.84300  -3.740  72.7528  75.2464   0.00   0.00   0.00
  4972.45000  -1.560  72.7536  75.2464   0.00   0.00   0.00
  4978.31900  -4.730  72.7521  75.2420   0.00   0.00   0.00
  4980.35200  -0.400  70.0102  72.4990   0.00   0.00   0.00
  4981.46900   0.700  70.0102  72.4985   0.00   0.00   0.00
  4982.66100  -2.100  72.7519  75.2396   0.00   0.00   0.00
  4982.66100  -3.400  72.7519  75.2396   0.00   0.00   0.00
  4983.05800  -3.870  72.7521  75.2396   0.00   0.00   0.00
  4984.45000  -3.990  72.7528  75.2396   0.00   0.00   0.00
  4986.06500  -2.260  72.7536  75.2396   0.00   0.00   0.00
  4986.06500  -3.670  72.7536  75.2396   0.00   0.00   0.00
  4997.03200   0.460  70.0185  72.4990   0.00   0.00   0.00
  5007.64500  -0.390  70.0102  72.4855   0.00   0.00   0.00
  5014.07400  -0.990  69.6967  72.1688   0.00   0.00   0.00
  5023.67400   0.600  69.7963  72.2637   0.00   0.00   0.00
  5024.50700  -4.570  70.0185  72.4855   0.00   0.00   0.00
  5047.10900  -2.350  69.7963  72.2522   0.00   0.00   0.00
  5100.98400  -0.820  69.6967  72.1267   0.00   0.00   0.00
  5142.54700  -0.860  69.7585  72.1688   0.00   0.00   0.00
  5166.35900  -0.680  69.7963  72.1955   0.00   0.00   0.00
  5217.56300  -1.260  69.9637  72.3394   0.00   0.00   0.00
  5220.34200  -0.110  69.9650  72.3394   0.00   0.00   0.00
  5224.59800   0.130  69.7963  72.1688   0.00   0.00   0.00
  5234.00800  -1.330  69.7585  72.1267   0.00   0.00   0.00
  5257.81900  -1.270  70.6857  73.0432   0.00   0.00   0.00
  5280.23000  -0.980  69.7585  72.1059   0.00   0.00   0.00
  5286.40100  -0.750  67.6738  70.0185   0.00   0.00   0.00
  5305.19700  -0.900  67.6738  70.0102   0.00   0.00   0.00
  5319.02800  -0.530  69.7963  72.1267   0.00   0.00   0.00
  5321.66100  -2.940  70.0102  72.3394   0.00   0.00   0.00
  5340.70900  -1.770  70.0185  72.3394   0.00   0.00   0.00
  5412.85600  -1.540  67.6738  69.9637   0.00   0.00   0.00
  5416.34600  -1.740  69.9637  72.2522   0.00   0.00   0.00
  5492.97900  -1.930  67.7620  70.0185   0.00   0.00   0.00
  5500.50500  -1.580  70.0102  72.2637   0.00   0.00   0.00
  5513.27600  -1.140  67.7620  70.0102   0.00   0.00   0.00
  5528.61200  -1.670  70.0102  72.2522   0.00   0.00   0.00
  5549.17300  -4.480  70.0185  72.2522   0.00   0.00   0.00
  5621.28200  -1.390  69.9637  72.1688   0.00   0.00   0.00
  5626.40700  -0.430  67.7620  69.9650   0.00   0.00   0.00
  5629.63900  -1.640  67.7620  69.9637   0.00   0.00   0.00
  5672.02400  -1.200  70.0102  72.1955   0.00   0.00   0.00
  5730.74500  -1.500  69.9637  72.1267   0.00   0.00   0.00
  5734.09700  -0.960  69.9650  72.1267   0.00   0.00   0.00
  5742.29900  -0.840  70.0102  72.1688   0.00   0.00   0.00
  5764.48300  -3.470  70.0185  72.1688   0.00   0.00   0.00
  5786.20300  -1.880  69.9637  72.1059   0.00   0.00   0.00
  5839.81000   0.080  67.6738  69.7963   0.00   0.00   0.00
  5856.57300  -1.500  70.0102  72.1267   0.00   0.00   0.00
  5879.65100  -1.000  70.0185  72.1267   0.00   0.00   0.00
  5938.04300  -1.100  70.0185  72.1059   0.00   0.00   0.00
  5945.84800  -0.720  67.6738  69.7585   0.00   0.00   0.00
  5987.37000  -0.440  67.9483  70.0185   0.00   0.00   0.00
  6092.93800  -0.100  67.7620  69.7963   0.00   0.00   0.00
  6127.37000  -0.070  67.6738  69.6967   0.00   0.00   0.00
  6150.10000  -0.130  67.9483  69.9637   0.00   0.00   0.00
  6208.46000  -0.020  67.7620  69.7585   0.00   0.00   0.00
  6244.01800  -0.140  68.0334  70.0185   0.00   0.00   0.00
  6256.75700   0.460  67.6738  69.6549   0.00   0.00   0.00
  6270.25700   0.280  68.0334  70.0102   0.00   0.00   0.00
  6406.63700   0.080  67.7620  69.6967   0.00   0.00   0.00
  6417.00000  -1.120  68.0334  69.9650   0.00   0.00   0.00
  6421.20400  -0.340  68.0334  69.9637   0.00   0.00   0.00
  6511.41600  -0.160  70.6857  72.5893   0.00   0.00   0.00
  6847.51900  -1.050  67.9483  69.7585   0.00   0.00   0.00
  7031.00300  -0.820  68.0334  69.7963   0.00   0.00   0.00
  7056.86100  -0.110  67.6738  69.4303   0.00   0.00   0.00
  7185.28400  -2.120  68.0334  69.7585   0.00   0.00   0.00
  7429.85900  -0.660  67.7620  69.4303   0.00   0.00   0.00
  7452.06800  -4.230  68.0334  69.6967   0.00   0.00   0.00
  7495.48000  -0.660  70.6857  72.3394   0.00   0.00   0.00
  8364.01200  -1.340  67.9483  69.4303   0.00   0.00   0.00
  8602.08200  -2.670  70.6857  72.1267   0.00   0.00   0.00
  8873.51300  -1.570  68.0334  69.4303   0.00   0.00   0.00
 19769.56400  -1.830  72.1267  72.7536   0.00   0.00   0.00
 21193.23200  -2.460  72.1688  72.7536   0.00   0.00   0.00
 21254.96200  -1.310  72.1688  72.7519   0.00   0.00   0.00
 21498.12100  -4.570  72.1763  72.7528   0.00   0.00   0.00
 21524.04100  -3.030  72.1763  72.7521   0.00   0.00   0.00
 21531.45800  -3.980  72.1763  72.7519   0.00   0.00   0.00
 22208.75600  -3.550  72.1955  72.7536   0.00   0.00   0.00
 22240.87100  -4.540  72.1955  72.7528   0.00   0.00   0.00
 22268.61400  -1.920  72.1955  72.7521   0.00   0.00   0.00
 22276.55300  -2.900  72.1955  72.7519   0.00   0.00   0.00
 24719.41300  -2.130  72.2522  72.7536   0.00   0.00   0.00
 24759.20600  -1.600  72.2522  72.7528   0.00   0.00   0.00
 24803.43400  -3.290  72.2522  72.7519   0.00   0.00   0.00
 25297.38200  -3.530  72.2637  72.7536   0.00   0.00   0.00
 25339.05900  -3.170  72.2637  72.7528   0.00   0.00   0.00
 25375.07500  -1.930  72.2637  72.7521   0.00   0.00   0.00
 25385.38500  -2.140  72.2637  72.7519   0.00   0.00   0.00
 29922.10000  -1.440  72.3394  72.7536   0.00   0.00   0.00
 35246.34500  -1.080  72.1267  72.4783   0.00   0.00   0.00
 35984.71500  -0.840  72.1059  72.4504   0.00   0.00   0.00
 38166.27300  -0.690  72.1267  72.4514   0.00   0.00   0.00
 38289.06000  -0.910  72.1267  72.4504   0.00   0.00   0.00
 39137.46300  -0.930  72.1763  72.4930   0.00   0.00   0.00
 39157.39100  -2.470  72.1763  72.4928   0.00   0.00   0.00
 40041.95000  -1.510  72.1688  72.4783   0.00   0.00   0.00
 40157.75700  -0.320  72.1688  72.4774   0.00   0.00   0.00
 41156.28700  -2.240  72.1763  72.4774   0.00   0.00   0.00
 41670.93400  -1.890  72.1955  72.4930   0.00   0.00   0.00
 41693.52600  -0.990  72.1955  72.4928   0.00   0.00   0.00
 42780.06700  -4.400  75.2312  75.5210   0.00   0.00   0.00
 42796.54900  -4.540  75.2313  75.5210   0.00   0.00   0.00
 42930.70700  -1.640  72.1763  72.4650   0.00   0.00   0.00
 42950.99600  -0.020  72.1763  72.4649   0.00   0.00   0.00
 43828.46900  -2.210  72.1955  72.4783   0.00   0.00   0.00
 43830.39100  -2.880  75.2382  75.5210   0.00   0.00   0.00
 43830.39100  -4.310  75.2382  75.5210   0.00   0.00   0.00
 43853.46200  -0.990  72.1688  72.4514   0.00   0.00   0.00
 43907.39100  -3.060  75.2387  75.5210   0.00   0.00   0.00
 43967.25200  -2.430  72.1955  72.4774   0.00   0.00   0.00
 44015.64700  -1.960  72.1688  72.4504   0.00   0.00   0.00
 45022.62500  -3.660  75.2457  75.5210   0.00   0.00   0.00
 45022.62500  -4.970  75.2457  75.5210   0.00   0.00   0.00
 45026.68000  -3.340  75.2457  75.5210   0.00   0.00   0.00
 45036.82300  -3.550  75.2458  75.5210   0.00   0.00   0.00
 45040.88100  -3.270  75.2458  75.5210   0.00   0.00   0.00
 45040.88100  -4.870  75.2458  75.5210   0.00   0.00   0.00
 45265.20800  -3.590  75.2396  75.5134   0.00   0.00   0.00
 45369.97400  -3.430  75.2396  75.5128   0.00   0.00   0.00
 45369.97400  -4.730  75.2396  75.5128   0.00   0.00   0.00
 45998.31600  -0.170  72.1955  72.4650   0.00   0.00   0.00
 46217.34500  -1.660  72.4855  72.7536   0.00   0.00   0.00
 46356.64400  -0.280  72.4855  72.7528   0.00   0.00   0.00
 46419.06400  -3.250  75.2464  75.5134   0.00   0.00   0.00
 46511.92800  -2.800  72.4855  72.7519   0.00   0.00   0.00
 46522.75100  -3.440  75.2464  75.5128   0.00   0.00   0.00
 46522.75100  -4.960  75.2464  75.5128   0.00   0.00   0.00
 46529.24700  -3.060  75.2464  75.5128   0.00   0.00   0.00
 46529.24700  -4.490  75.2464  75.5128   0.00   0.00   0.00
 46533.57800  -3.540  75.2464  75.5128   0.00   0.00   0.00
 46533.57800  -4.840  75.2464  75.5128   0.00   0.00   0.00
 46955.39900  -3.360  75.2489  75.5128   0.00   0.00   0.00
 46955.39900  -4.870  75.2489  75.5128   0.00   0.00   0.00
 46966.42800  -3.430  75.2489  75.5128   0.00   0.00   0.00
 48436.40500  -3.430  72.1955  72.4514   0.00   0.00   0.00
 48572.89800  -2.820  72.4985  72.7536   0.00   0.00   0.00
 48679.33000  -1.460  72.4990  72.7536   0.00   0.00   0.00
 48726.78300  -1.590  72.4985  72.7528   0.00   0.00   0.00
 48860.14400  -0.170  72.4985  72.7521   0.00   0.00   0.00
 48898.38100  -1.510  72.4985  72.7519   0.00   0.00   0.00
 49006.24500  -0.320  72.4990  72.7519   0.00   0.00   0.00
 51516.40700  -0.390  72.2522  72.4928   0.00   0.00   0.00
 54053.92900  -0.280  72.2637  72.4930   0.00   0.00   0.00
 54091.94900  -2.190  72.2637  72.4928   0.00   0.00   0.00
 54815.62700  -1.140  72.2522  72.4783   0.00   0.00   0.00
 55032.88600  -2.290  72.2522  72.4774   0.00   0.00   0.00
 57740.98500  -2.520  72.2637  72.4783   0.00   0.00   0.00
 57982.10300  -1.010  72.2637  72.4774   0.00   0.00   0.00
 61567.15200  -1.630  72.2637  72.4650   0.00   0.00   0.00
 62218.53500  -3.740  72.2522  72.4514   0.00   0.00   0.00
 62545.50900  -2.470  72.2522  72.4504   0.00   0.00   0.00
 66014.75300  -2.290  72.2637  72.4514   0.00   0.00   0.00
 75428.35600  -0.720  72.5893  72.7536   0.00   0.00   0.00
 89213.58600  -0.980  72.3394  72.4783   0.00   0.00   0.00
 89221.54800  -3.080  72.4504  72.5893   0.00   0.00   0.00
 89895.46300  -2.010  72.4514  72.5893   0.00   0.00   0.00
