#  Wav (A)    log gf    E (l, u) (eV)    rad    stark  waals
   634.98595  -6.240   0.0000  19.5257   8.44  -5.58  -7.69
   635.07749  -5.332   0.0000  19.5229  12.72  -5.20  -7.69
   636.14624  -6.505   0.0356  19.5257   8.44  -5.58  -7.69
   636.23811  -5.699   0.0356  19.5229  12.72  -5.20  -7.69
   636.44017  -5.230   0.0356  19.5167   8.43  -5.37  -7.69
   637.33133  -5.707   0.0356  19.4895   8.42  -5.64  -7.68
   639.43173  -7.098   0.0356  19.4256   8.60  -5.64  -7.71
   642.57813  -7.647   0.0000  19.2950   8.49  -5.48  -7.73
   643.72325  -7.327   0.0356  19.2963   8.49  -5.48  -7.73
   643.76635  -7.832   0.0356  19.2950   8.49  -5.48  -7.73
   643.97944  -6.715   0.0356  19.2886   8.60  -6.08  -7.73
   730.99415  -2.644   0.0000  16.9612  14.18  -5.99  -7.65
   732.53226  -2.406   0.0356  16.9612  14.18  -5.97  -7.65
   732.53226  -3.332   0.0356  16.9612  14.18  -5.99  -7.65
   741.26083  -6.876   0.0000  16.7263   7.97  -6.48  -7.69
   742.84249  -6.978   0.0356  16.7263   7.97  -6.48  -7.69
   745.82895  -7.247   0.0000  16.6239   8.06  -6.35  -7.68
   746.17455  -6.868   0.0000  16.6162   8.06  -6.35  -7.68
   746.67883  -5.398   0.0356  16.6405   8.07  -6.35  -7.68
   747.43019  -6.067   0.0356  16.6239   8.06  -6.35  -7.68
   747.77727  -6.048   0.0356  16.6162   8.06  -6.35  -7.68
   753.71468  -3.999   0.0000  16.4499   8.03  -5.98  -7.70
   754.19275  -3.882   0.0000  16.4395   8.03  -5.98  -7.70
   755.34999  -3.449   0.0356  16.4499   8.03  -5.98  -7.70
   755.83013  -4.071   0.0356  16.4395   8.03  -5.98  -7.70
   758.36900  -7.261   0.0000  16.3490   8.00  -6.41  -7.70
   758.81228  -5.611   0.0000  16.3394   8.00  -6.41  -7.70
   759.29677  -5.902   0.0356  16.3646   8.00  -6.42  -7.70
   760.02459  -5.377   0.0356  16.3490   8.00  -6.41  -7.70
   760.46981  -5.813   0.0356  16.3394   8.00  -6.41  -7.70
   803.24059  -2.471   0.0000  15.4357   7.43  -3.68  -7.02
   804.65606  -2.745   0.0000  15.4085   7.71  -3.99  -7.01
   805.09814  -2.215   0.0356  15.4357   7.43  -3.69  -7.02
   805.09814  -3.164   0.0356  15.4357   7.43  -3.68  -7.02
   806.52017  -2.445   0.0356  15.4085   7.71  -3.99  -7.01
   818.57524  -2.166   0.0000  15.1465   7.66  -4.04  -7.12
   819.44860  -3.738   5.3230  20.4534   7.91  -4.86  -7.39
   820.50407  -1.911   0.0356  15.1465   7.66  -4.06  -7.12
   820.50447  -2.860   0.0356  15.1465   7.66  -4.04  -7.12
   820.62735  -2.096   5.3448  20.4534   7.91  -4.86  -7.39
   820.92114  -2.531   0.0000  15.1032   7.89  -4.00  -7.11
   821.44976  -1.449   5.3448  20.4383   8.03  -4.86  -7.39
   822.86146  -2.231   0.0356  15.1032   7.89  -4.00  -7.11
   825.23040  -1.754   5.3230  20.3474   8.23  -4.92  -7.36
   826.42586  -1.433   5.3448  20.3474   8.23  -4.92  -7.36
   836.31822  -7.567   5.3096  20.1347  13.14  -6.57  -7.65
   837.07660  -6.603   5.3230  20.1347  13.14  -6.57  -7.65
   837.15838  -7.420   5.3096  20.1199  13.14  -6.17  -7.65
   837.91828  -6.105   5.3230  20.1199  13.14  -6.17  -7.65
   838.30666  -5.088   5.3448  20.1347  13.14  -6.57  -7.65
   843.71909  -1.784   0.0000  14.6951   7.96  -4.24  -7.24
   845.76831  -1.529   0.0356  14.6951   7.96  -4.24  -7.24
   845.76881  -2.478   0.0356  14.6951   7.96  -4.24  -7.24
   848.06996  -2.274   0.0000  14.6197   8.10  -4.39  -7.22
   850.14090  -1.974   0.0356  14.6197   8.10  -4.39  -7.22
   850.38562  -5.324   5.3096  19.8895   9.46  -5.59  -7.52
   851.16974  -4.913   5.3230  19.8895   9.46  -5.59  -7.52
   852.26512  -4.790   5.3230  19.8708   9.46  -5.51  -7.52
   852.44159  -5.503   5.3448  19.8895   9.46  -5.59  -7.52
   853.54026  -4.443   5.3448  19.8708   9.46  -5.51  -7.52
   889.72278  -1.273   0.0000  13.9353   8.34  -4.66  -7.38
   892.00114  -1.018   0.0356  13.9353   8.34  -4.66  -7.38
   892.00241  -1.966   0.0356  13.9353   8.34  -4.66  -7.38
   899.40627  -1.948   0.0000  13.7853   8.35  -4.81  -7.36
   901.73586  -1.648   0.0356  13.7853   8.35  -4.81  -7.36
   905.72318  -2.867   5.3096  18.9987   8.39  -5.29  -7.58
   906.12533  -2.159   5.3096  18.9926   8.42  -5.29  -7.58
   906.61272  -1.748   5.3230  18.9987   8.39  -5.29  -7.58
   907.01566  -1.930   5.3230  18.9926   8.42  -5.29  -7.58
   907.76244  -2.757   5.3230  18.9814   8.39  -5.29  -7.58
   908.46002  -1.730   5.3448  18.9926   8.42  -5.29  -7.58
   909.20919  -1.241   5.3448  18.9814   8.39  -5.29  -7.58
   911.93823  -5.153   6.8576  20.4534   7.91  -4.86  -7.39
   912.06990  -3.602   6.8595  20.4534   7.91  -4.86  -7.39
   912.34791  -1.170   5.3096  18.8993   8.67  -5.30  -7.58
   912.46029  -1.206   5.3096  18.8976   8.67  -5.29  -7.58
   913.00705  -0.787   5.3230  18.9029   8.66  -5.30  -7.58
   913.08591  -3.750   6.8595  20.4383   8.04  -4.86  -7.39
   913.25052  -1.153   5.3230  18.8993   8.67  -5.30  -7.58
   913.36312  -1.993   5.3230  18.8976   8.67  -5.29  -7.58
   913.84632  -0.540   5.3448  18.9122   8.67  -5.30  -7.58
   914.47057  -1.341   5.3448  18.9029   8.66  -5.30  -7.58
   914.71483  -2.356   5.3448  18.8993   8.67  -5.30  -7.58
   919.10455  -6.206   6.8576  20.3474   8.23  -4.92  -7.36
   923.76014  -3.775   5.3096  18.7314   8.27  -5.40  -7.59
   924.13345  -3.058   5.3230  18.7394   8.31  -5.40  -7.59
   924.68548  -3.675   5.3230  18.7314   8.27  -5.40  -7.59
   924.79571  -2.734   5.3448  18.7516   8.31  -5.40  -7.59
   925.34861  -1.248   5.3230  18.7218  14.87  -5.33  -7.54
   925.63289  -3.423   5.3448  18.7394   8.31  -5.40  -7.59
   926.18672  -4.716   5.3448  18.7314   8.27  -5.40  -7.59
   926.85201  -0.899   5.3448  18.7218  14.87  -5.33  -7.54
   926.85201  -4.705   5.3448  18.7218  14.87  -5.79  -7.72
   928.29066  -2.766   5.3230  18.6793   9.25  -5.76  -7.71
   929.21077  -1.286   5.3096  18.6527   8.58  -5.34  -7.54
   929.80364  -2.494   5.3448  18.6793   9.25  -5.76  -7.71
   930.14707  -1.803   5.3230  18.6527   8.58  -5.34  -7.54
   930.25411  -1.989   5.3096  18.6377   8.57  -5.34  -7.54
   931.19251  -1.299   5.3230  18.6377   8.57  -5.34  -7.54
   931.66611  -1.262   5.3448  18.6527   8.58  -5.34  -7.54
   933.82322  -1.347   6.8576  20.1347  13.14  -6.57  -7.65
   933.96128  -0.469   6.8595  20.1347  13.14  -6.57  -7.65
   934.16989  -4.984   5.3096  18.5819   9.00  -5.58  -7.65
   934.61979  -4.286   5.3230  18.5889   9.00  -5.58  -7.65
   934.87082  -0.708   6.8576  20.1199  13.14  -6.17  -7.65
   935.11621  -7.278   5.3230  18.5819   9.00  -5.58  -7.65
   936.15349  -4.637   5.3448  18.5889   9.00  -5.58  -7.65
   936.65154  -5.545   5.3448  18.5819   9.00  -5.58  -7.65
   951.39648  -0.872   6.8576  19.8895   9.46  -5.59  -7.52
   951.53979  -1.602   6.8595  19.8895   9.46  -5.59  -7.52
   952.76523  -1.991   6.8576  19.8708   9.46  -5.51  -7.52
   952.90895  -0.627   6.8595  19.8708   9.46  -5.51  -7.52
   988.34045  -7.311   5.3096  17.8544  11.81  -6.25  -7.71
   988.54953  -6.936   5.3096  17.8518  11.81  -6.26  -7.71
   989.39977  -6.158   5.3230  17.8544  11.81  -6.25  -7.71
   989.60930  -5.806   5.3230  17.8518  11.81  -6.26  -7.71
   989.87310  -0.532   0.0000  12.5254   8.89  -5.17  -7.57
   991.32894  -4.824   5.3448  17.8518  11.81  -6.26  -7.71
   992.68284  -0.277   0.0356  12.5256   8.89  -5.17  -7.57
   992.69565  -1.223   0.0356  12.5254   8.89  -5.17  -7.57
  1020.69890  -1.422   0.0000  12.1471   8.63  -5.29  -7.53
  1021.20060  -4.982   6.8576  18.9987   8.39  -5.29  -7.58
  1021.71190  -4.279   6.8576  18.9926   8.42  -5.29  -7.58
  1021.87720  -3.336   6.8595  18.9926   8.42  -5.29  -7.58
  1022.65960  -5.149   6.8576  18.9814   8.39  -5.29  -7.58
  1022.82520  -6.105   6.8595  18.9814   8.39  -5.29  -7.58
  1023.70020  -1.195   0.0356  12.1471   8.63  -5.29  -7.53
  1028.69740  -3.226   6.8595  18.9122   8.67  -5.30  -7.58
  1029.32070  -4.156   6.8576  18.9029   8.66  -5.30  -7.58
  1029.48850  -6.127   6.8595  18.9029   8.66  -5.30  -7.58
  1029.63020  -5.159   6.8576  18.8993   8.67  -5.30  -7.58
  1029.77330  -4.544   6.8576  18.8976   8.68  -5.29  -7.58
  1029.79800  -3.954   6.8595  18.8993   8.67  -5.30  -7.58
  1032.03940  -3.725   8.1211  20.1347  13.14  -5.91  -7.65
  1033.31910  -4.067   8.1211  20.1199  13.14  -5.91  -7.65
  1042.59280  -1.816   6.8595  18.7516   8.31  -5.40  -7.59
  1043.48460  -1.991   6.8576  18.7394   8.31  -5.40  -7.59
  1043.65700  -3.235   6.8595  18.7394   8.31  -5.40  -7.59
  1044.18850  -5.138   6.8576  18.7314   8.27  -5.40  -7.59
  1044.36110  -5.848   6.8595  18.7314   8.27  -5.40  -7.59
  1045.03420  -1.537   6.8576  18.7218  14.87  -5.33  -7.54
  1045.20710   0.209   6.8595  18.7218  14.87  -5.79  -7.72
  1045.20710  -2.632   6.8595  18.7218  14.87  -5.33  -7.54
  1048.78800   0.030   6.8576  18.6793   9.25  -5.76  -7.71
  1048.96220  -1.160   6.8595  18.6793   9.25  -5.76  -7.71
  1051.15830  -4.343   6.8576  18.6527   8.58  -5.34  -7.54
  1051.33320  -3.690   6.8595  18.6527   8.58  -5.34  -7.54
  1052.49360  -4.281   6.8576  18.6377   8.58  -5.34  -7.54
  1053.54620  -8.257   8.1211  19.8895   9.60  -5.59  -7.52
  1056.87410  -4.050   6.8576  18.5889   9.00  -5.58  -7.65
  1057.05090  -1.402   6.8595  18.5889   9.00  -5.58  -7.65
  1057.50890  -1.638   6.8576  18.5819   9.00  -5.58  -7.65
  1057.68600  -2.494   6.8595  18.5819   9.00  -5.58  -7.65
  1081.32410  -4.279   5.3096  16.7757   9.39  -6.65  -7.81
  1082.59230  -4.107   5.3230  16.7757   9.39  -6.65  -7.81
  1082.66490  -3.710   5.3230  16.7749   9.39  -6.65  -7.81
  1084.65060  -5.026   5.3448  16.7757   9.39  -6.65  -7.81
  1084.72350  -3.857   5.3448  16.7749   9.39  -6.65  -7.81
  1125.98800  -3.816   5.3448  16.3560   9.24  -5.93  -7.80
  1126.83060  -4.794   5.3230  16.3260   9.23  -5.94  -7.81
  1127.46370  -1.271   6.8576  17.8544  11.81  -6.25  -7.71
  1127.73580  -1.873   6.8576  17.8518  11.81  -6.26  -7.71
  1127.93720  -1.036   6.8595  17.8518  11.81  -6.26  -7.71
  1129.06080  -5.185   5.3448  16.3260   9.23  -5.94  -7.81
  1139.82420  -6.311   8.1211  18.9987   9.13  -5.29  -7.58
  1140.46110  -4.488   8.1211  18.9926   9.13  -5.29  -7.58
  1150.33590  -5.433   8.1211  18.8993   9.19  -5.30  -7.58
  1150.51460  -5.882   8.1211  18.8976   9.19  -5.29  -7.58
  1166.44400  -1.694   9.5054  20.1347  13.14  -6.49  -7.65
  1167.85050  -5.628   9.8368  20.4534   9.57  -4.86  -7.39
  1168.07580  -4.265   9.8389  20.4534   9.56  -4.86  -7.39
  1168.07900  -1.817   9.5054  20.1199  13.14  -6.17  -7.65
  1168.53790  -8.531   8.1211  18.7314   9.11  -5.40  -7.59
  1169.74280  -4.110   9.8389  20.4383   9.57  -4.86  -7.39
  1173.53360  -6.452   5.3230  15.8882   7.90  -2.81  -6.89
  1175.95260  -5.525   5.3448  15.8882   7.91  -2.81  -6.89
  1175.95260  -6.842   5.3448  15.8882   7.90  -2.81  -6.89
  1177.27350  -4.770   8.1211  18.6527   9.17  -5.34  -7.54
  1178.94870  -5.434   8.1211  18.6377   9.17  -5.34  -7.54
  1179.62920  -6.314   9.8368  20.3474   9.58  -4.92  -7.36
  1179.85910  -6.729   9.8389  20.3474   9.57  -4.92  -7.36
  1184.40080  -5.466   5.3230  15.7912   7.71  -3.09  -6.86
  1185.24520  -6.648   8.1211  18.5819   9.32  -5.58  -7.65
  1186.86490  -4.503   5.3448  15.7912   7.71  -3.09  -6.86
  1186.86490  -5.794   5.3448  15.7912   7.71  -3.09  -6.86
  1190.41580  -0.245   0.0000  10.4153   9.63  -6.55  -7.81
  1193.28970   0.075   0.0000  10.3902   9.63  -6.55  -7.81
  1193.99210  -3.432   9.5054  19.8895   9.60  -5.59  -7.52
  1194.44190  -3.991   5.3096  15.6898   8.38  -4.21  -6.99
  1194.50020   0.487   0.0356  10.4153   9.63  -6.55  -7.81
  1194.72160  -4.150   5.3096  15.6874   8.26  -4.47  -6.96
  1195.98940  -4.844   5.3230  15.6898   8.38  -4.21  -6.99
  1196.26980  -3.112   5.3230  15.6874   8.26  -4.47  -6.96
  1197.39380  -0.202   0.0356  10.3902   9.63  -6.55  -7.81
  1198.25470  -3.812   5.3096  15.6568   8.26  -3.69  -7.05
  1198.78360  -3.200   5.3448  15.6874   8.26  -4.47  -6.96
  1198.86670  -3.722   5.3096  15.6515   8.40  -3.71  -7.11
  1199.44060  -5.483   5.3230  15.6600   7.41  -3.31  -6.93
  1199.81220  -4.808   5.3230  15.6568   8.26  -3.69  -7.05
  1200.42570  -2.670   5.3230  15.6515   8.40  -3.71  -7.11
  1201.96770  -4.493   5.3448  15.6600   7.41  -3.31  -6.93
  1201.96770  -5.762   5.3448  15.6600   7.41  -3.31  -6.93
  1202.95700  -2.710   5.3448  15.6515   8.40  -3.71  -7.11
  1203.98520  -1.914   9.8368  20.1347  13.14  -5.75  -7.65
  1204.22470  -0.891   9.8389  20.1347  13.14  -5.75  -7.65
  1205.72720  -1.106   9.8368  20.1199  13.14  -5.75  -7.65
  1216.40580  -4.682   5.3096  15.5024   7.49  -4.11  -6.99
  1216.53600  -4.714   5.3096  15.5013   7.39  -4.09  -6.99
  1218.01080  -3.628   5.3230  15.5024   7.49  -4.11  -6.99
  1218.14130  -5.061   5.3230  15.5013   7.39  -4.09  -6.99
  1220.61690  -4.003   5.3448  15.5024   7.49  -4.11  -6.99
  1221.15750  -4.043   5.3230  15.4761   7.62  -3.57  -7.01
  1222.27560  -1.918   5.3096  15.4534   9.29  -6.25  -7.89
  1222.62380  -1.167   5.3096  15.4505   9.35  -6.34  -7.88
  1223.77710  -4.005   5.3448  15.4761   7.62  -3.57  -7.01
  1223.77800  -2.937   5.3448  15.4761   7.63  -3.57  -7.01
  1223.89610  -0.061   5.3230  15.4534   9.29  -6.25  -7.89
  1224.24520   0.002   5.3230  15.4505   9.35  -6.34  -7.88
  1224.96810  -0.584   5.3230  15.4445   9.43  -6.31  -7.87
  1226.79800   0.235   5.3096  15.4160   9.62  -6.17  -7.85
  1226.87810  -0.029   5.3448  15.4505   9.35  -6.34  -7.88
  1226.97870   0.345   5.3096  15.4145   9.58  -6.18  -7.86
  1227.60410   0.528   5.3448  15.4445   9.43  -6.31  -7.87
  1228.43060  -0.831   5.3230  15.4160   9.62  -6.17  -7.85
  1228.61170   0.099   5.3230  15.4145   9.58  -6.18  -7.86
  1228.73850   0.651   5.3230  15.4135   9.53  -6.15  -7.86
  1229.38340   0.882   5.3448  15.4299   9.62  -5.67  -7.84
  1230.74920 -14.286   0.0000  10.0740   8.08  -5.68  -7.69
  1230.74920  -5.698   0.0000  10.0740   8.08  -5.68  -7.69
  1231.26340  -2.448   5.3448  15.4145   9.58  -6.18  -7.86
  1231.39080  -1.143   5.3448  15.4135   9.53  -6.15  -7.86
  1233.35740  -1.396   9.8368  19.8895   9.81  -5.59  -7.52
  1233.60870  -2.060   9.8389  19.8895   9.81  -5.59  -7.52
  1235.11560  -5.704   0.0356  10.0740   8.08  -5.68  -7.69
  1235.11560 -20.000   0.0356  10.0740   8.08  -5.68  -7.69
  1235.15280  -2.587  10.4153  20.4534   9.64  -4.86  -7.39
  1235.65860  -2.202   9.8368  19.8708   9.81  -5.51  -7.52
  1235.91090  -1.114   9.8389  19.8708   9.81  -5.51  -7.52
  1236.03130 -14.288   0.0356  10.0665   8.08  -5.68  -7.69
  1236.03130  -5.704   0.0356  10.0665   8.08  -5.68  -7.69
  1245.10700  -2.350   5.3096  15.2674   8.32  -4.68  -7.10
  1245.74360  -5.702   5.3096  15.2623   8.15  -4.99  -7.10
  1246.73960  -0.236   5.3096  15.2544   9.57  -6.23  -7.75
  1246.78870  -1.988   5.3230  15.2674   8.32  -4.68  -7.10
  1247.42700  -5.029   5.3230  15.2623   8.15  -4.99  -7.10
  1248.33600  -4.320  10.4153  20.3474   9.65  -4.92  -7.36
  1248.42570   0.066   5.3230  15.2544   9.57  -6.23  -7.75
  1249.51960  -1.753   5.3448  15.2674   8.32  -4.68  -7.10
  1250.09140   0.228   6.8576  16.7757   9.39  -6.59  -7.81
  1250.18830  -0.749   6.8576  16.7749   9.39  -6.59  -7.81
  1250.33880  -0.728   6.8595  16.7757   9.39  -6.59  -7.81
  1250.43580   0.423   6.8595  16.7749   9.39  -6.59  -7.81
  1251.16370   0.240   5.3448  15.2544   9.57  -6.23  -7.75
  1254.34710  -4.858   5.3230  15.2075   7.84  -3.86  -7.11
  1257.11120  -5.277   5.3448  15.2075   7.84  -3.86  -7.11
  1257.11310  -3.947   5.3448  15.2075   7.84  -3.86  -7.11
  1260.42210   0.462   0.0000   9.8368   9.56  -5.75  -7.79
  1264.73770   0.710   0.0356   9.8389   9.55  -5.75  -7.79
  1265.00200  -0.273   0.0356   9.8368   9.56  -5.75  -7.79
  1269.58490  -3.524   5.3096  15.0754   8.79  -4.03  -7.25
  1271.33350  -3.824   5.3230  15.0754   8.79  -4.03  -7.25
  1271.94370  -4.785   5.3096  15.0573   8.80  -4.16  -7.26
  1272.36090  -0.416  10.3902  20.1347  13.14  -6.55  -7.65
  1273.69880  -4.414   5.3230  15.0573   8.80  -4.16  -7.26
  1273.82810  -3.215   8.1211  17.8544  11.81  -5.91  -7.71
  1274.17300  -5.534   5.3448  15.0754   8.79  -4.03  -7.25
  1274.17540  -2.886   8.1211  17.8518  11.81  -5.91  -7.71
  1274.30660  -0.029  10.3902  20.1199  13.14  -6.17  -7.65
  1275.64460   0.388  10.4153  20.1347  13.14  -6.55  -7.65
  1277.60030  -0.335  10.4153  20.1199  13.14  -6.17  -7.65
  1304.37020  -0.674   0.0000   9.5054   9.05  -6.49  -7.85
  1305.20950   0.345  10.3902  19.8895   9.85  -5.59  -7.52
  1305.59180   0.475   6.8595  16.3560   9.24  -5.93  -7.80
  1306.02950  -5.579   9.5054  18.9987   9.13  -5.29  -7.58
  1306.86580  -3.864   9.5054  18.9926   9.14  -5.29  -7.58
  1308.05270  -3.762   5.3096  14.7882   8.28  -4.37  -7.23
  1308.54200  -4.832   5.3096  14.7847   8.33  -4.36  -7.23
  1308.66520  -0.479  10.4153  19.8895   9.85  -5.59  -7.52
  1309.26520  -5.312   5.3230  14.7929   8.06  -4.20  -7.23
  1309.27570  -0.448   0.0356   9.5054   9.05  -6.49  -7.85
  1309.45330   0.319   6.8576  16.3260   9.23  -5.94  -7.81
  1309.72480  -0.860   6.8595  16.3260   9.23  -5.94  -7.81
  1309.90880  -4.240   5.3230  14.7882   8.28  -4.37  -7.23
  1310.39960  -4.308   5.3230  14.7847   8.33  -4.36  -7.23
  1310.74550  -6.232  10.0665  19.5257   8.60  -5.58  -7.69
  1311.13560  -3.703  10.0665  19.5229  12.72  -5.20  -7.69
  1311.25630   0.579  10.4153  19.8708   9.85  -5.51  -7.52
  1311.77680  -6.508  10.0740  19.5257   8.60  -5.58  -7.69
  1312.16750  -4.114  10.0740  19.5229  12.72  -5.20  -7.69
  1312.27690  -5.677   5.3448  14.7929   8.06  -4.20  -7.23
  1312.27950  -4.366   5.3448  14.7929   8.06  -4.20  -7.23
  1312.92350  -4.045   5.3448  14.7882   8.28  -4.37  -7.23
  1313.02730  -3.613  10.0740  19.5167   8.59  -5.37  -7.69
  1316.82600  -3.721  10.0740  19.4895   8.59  -5.64  -7.68
  1319.84890  -3.258   9.5054  18.8993   9.20  -5.30  -7.58
  1320.08410  -3.539   9.5054  18.8976   9.20  -5.29  -7.58
  1325.82420  -7.332  10.0740  19.4256   8.71  -5.64  -7.69
  1343.51250  -6.617  10.0665  19.2950   8.63  -5.48  -7.69
  1343.86660  -6.399   9.5054  18.7314   9.11  -5.40  -7.59
  1344.40800  -6.408  10.0740  19.2963   8.64  -5.48  -7.69
  1344.59600  -7.592  10.0740  19.2950   8.63  -5.48  -7.69
  1345.52600  -5.627  10.0740  19.2886   8.72  -5.68  -7.69
  1346.88410  -0.144   5.3230  14.5284   9.16  -5.94  -7.76
  1348.54330  -0.186   5.3096  14.5036   9.15  -5.92  -7.76
  1350.07150   0.216   5.3448  14.5284   9.16  -5.94  -7.76
  1350.51620  -0.690   5.3230  14.5036   9.15  -5.92  -7.76
  1350.65610  -0.888   5.3096  14.4892   9.15  -5.93  -7.76
  1352.63530  -0.193   5.3230  14.4892   9.15  -5.93  -7.76
  1353.27520  -6.020   9.8368  18.9987   9.58  -5.29  -7.58
  1353.72090  -0.158   5.3448  14.5036   9.15  -5.92  -7.76
  1354.17320  -4.550   9.8368  18.9926   9.59  -5.29  -7.58
  1354.47620  -4.183   9.8389  18.9926   9.58  -5.29  -7.58
  1355.43320  -3.419   9.5054  18.6527   9.17  -5.34  -7.54
  1355.83840  -5.701   9.8368  18.9814   9.58  -5.29  -7.58
  1356.14220  -5.681   9.8389  18.9814   9.58  -5.29  -7.58
  1357.65440  -4.086   9.5054  18.6377   9.17  -5.34  -7.54
  1366.01100  -4.462   9.5054  18.5819   9.32  -5.58  -7.65
  1366.48460  -3.287   9.8389  18.9122   9.61  -5.30  -7.58
  1367.57190  -4.166   9.8368  18.9029   9.61  -5.30  -7.58
  1367.88090  -6.080   9.8389  18.9029   9.61  -5.30  -7.58
  1368.11820  -5.197   9.8368  18.8993   9.61  -5.30  -7.58
  1368.37090  -4.681   9.8368  18.8976   9.61  -5.29  -7.58
  1368.42750  -4.150   9.8389  18.8993   9.61  -5.30  -7.58
  1372.94740  -0.936   6.8576  15.8882   7.91  -2.81  -6.89
  1373.24590  -0.779   6.8595  15.8882   7.91  -2.81  -6.89
  1373.24590  -2.080   6.8595  15.8882   7.91  -2.81  -6.89
  1387.84510  -1.673   6.8576  15.7912   7.72  -3.09  -6.86
  1388.15010  -1.525   6.8595  15.7912   7.72  -3.09  -6.86
  1388.15010  -2.826   6.8595  15.7912   7.72  -3.09  -6.86
  1391.11310  -1.925   9.8389  18.7516   9.58  -5.40  -7.59
  1392.68780  -2.109   9.8368  18.7394   9.58  -5.40  -7.59
  1393.00830  -3.222   9.8389  18.7394   9.58  -5.40  -7.59
  1393.94190  -6.342   9.8368  18.7314   9.58  -5.40  -7.59
  1394.26300  -7.897   9.8389  18.7314   9.57  -5.40  -7.59
  1395.44940  -1.616   9.8368  18.7218  14.87  -5.33  -7.54
  1395.77120   0.124   9.8389  18.7218  14.87  -5.75  -7.72
  1395.77120  -2.755   9.8389  18.7218  14.87  -5.33  -7.54
  1399.74960  -4.258   5.3096  14.1673   5.14  -6.46  -7.92
  1400.66750  -3.547   5.3230  14.1749   5.42  -6.56  -7.92
  1401.87530  -4.161   5.3230  14.1673   5.11  -6.46  -7.92
  1402.15090  -0.056   9.8368  18.6793   9.73  -5.75  -7.71
  1402.39340  -3.244   5.3448  14.1857   5.43  -6.53  -7.92
  1402.47580  -1.209   9.8389  18.6793   9.73  -5.75  -7.71
  1403.78360  -0.944   6.8576  15.6898   8.38  -4.21  -6.99
  1404.11500  -3.932   5.3448  14.1749   5.42  -6.56  -7.92
  1404.17000  -1.798   6.8576  15.6874   8.26  -4.47  -6.96
  1404.48220  -0.808   6.8595  15.6874   8.26  -4.47  -6.96
  1405.32870  -5.204   5.3448  14.1673   5.11  -6.46  -7.92
  1405.43340  -4.594   5.3096  14.1315   7.77  -4.87  -7.33
  1405.72260  -5.652   5.3096  14.1296   7.79  -4.86  -7.33
  1406.39060  -4.662   9.8368  18.6527   9.60  -5.34  -7.54
  1406.71750  -3.782   9.8389  18.6527   9.60  -5.34  -7.54
  1407.57640  -5.186   5.3230  14.1315   7.77  -4.87  -7.33
  1407.86650  -4.782   5.3230  14.1296   7.79  -4.86  -7.33
  1408.54060  -2.247   6.8576  15.6600   7.42  -3.31  -6.93
  1408.78210  -4.404   9.8368  18.6377   9.60  -5.34  -7.54
  1408.85470  -2.081   6.8595  15.6600   7.42  -3.31  -6.93
  1408.85470  -3.381   6.8595  15.6600   7.42  -3.31  -6.93
  1409.05300  -1.117   6.8576  15.6568   8.27  -3.69  -7.05
  1409.89930  -1.718   6.8576  15.6515   8.40  -3.71  -7.11
  1410.21410  -0.713   6.8595  15.6515   8.40  -3.71  -7.11
  1411.05800  -4.236   5.3448  14.1315   7.77  -4.87  -7.33
  1411.87700  -5.266   5.3230  14.1046   8.29  -4.68  -7.38
  1415.37990  -5.629   5.3448  14.1046   8.29  -4.68  -7.38
  1415.38330  -4.361   5.3448  14.1046   8.29  -4.68  -7.38
  1416.64130  -2.368   9.8368  18.5889   9.66  -5.58  -7.65
  1416.97290  -2.806   9.8389  18.5889   9.66  -5.58  -7.65
  1417.78210  -3.101   9.8368  18.5819   9.66  -5.58  -7.65
  1418.11430  -3.952   9.8389  18.5819   9.66  -5.58  -7.65
  1432.60260  -6.560   8.1211  16.7757   9.55  -5.91  -7.75
  1434.21920  -2.827   6.8576  15.5024   7.50  -4.11  -6.99
  1434.40020  -2.234   6.8576  15.5013   7.41  -4.09  -6.99
  1434.54490  -1.831   6.8595  15.5024   7.50  -4.11  -6.99
  1438.58420  -1.543   6.8576  15.4761   7.63  -3.57  -7.01
  1438.91190  -2.683   6.8595  15.4761   7.63  -3.57  -7.01
  1438.91310  -1.383   6.8595  15.4761   7.64  -3.57  -7.01
  1440.27160  -3.661  10.3902  18.9987   9.65  -5.29  -7.58
  1441.28870  -2.192  10.3902  18.9926   9.65  -5.29  -7.58
  1442.38640  -6.067   6.8576  15.4534   9.29  -6.25  -7.89
  1442.87130  -5.016   6.8576  15.4505   9.35  -6.34  -7.88
  1443.20100  -5.278   6.8595  15.4505   9.35  -6.34  -7.88
  1443.87550  -6.272   6.8576  15.4445   9.43  -6.31  -7.87
  1444.20560  -4.079   6.8595  15.4445   9.43  -6.31  -7.87
  1444.48050  -3.929  10.4153  18.9987   9.65  -5.29  -7.58
  1445.50360  -1.622  10.4153  18.9926   9.65  -5.29  -7.58
  1446.66880  -3.703   6.8595  15.4299   9.62  -5.67  -7.84
  1447.40130  -2.987  10.4153  18.9814   9.65  -5.29  -7.58
  1448.68850  -3.997   6.8576  15.4160   9.62  -6.17  -7.85
  1448.94040  -4.666   6.8576  15.4145   9.58  -6.18  -7.86
  1449.11680  -5.549   6.8576  15.4135   9.53  -6.15  -7.86
  1449.27280  -3.742   6.8595  15.4145   9.58  -6.18  -7.86
  1449.44930  -3.817   6.8595  15.4135   9.53  -6.15  -7.86
  1457.09620  -4.950  10.3902  18.8993   9.67  -5.30  -7.58
  1457.38280  -3.848  10.3902  18.8976   9.67  -5.29  -7.58
  1460.78080  -3.173  10.4153  18.9029   9.67  -5.30  -7.58
  1461.40420  -3.112  10.4153  18.8993   9.67  -5.30  -7.58
  1461.69250  -4.174  10.4153  18.8976   9.67  -5.29  -7.58
  1474.28870  -1.916   6.8576  15.2674   8.32  -4.68  -7.10
  1474.63280  -0.947   6.8595  15.2674   8.32  -4.68  -7.10
  1475.18130  -1.308   6.8576  15.2623   8.15  -4.99  -7.10
  1476.57810  -3.628   6.8576  15.2544   9.57  -6.23  -7.75
  1476.92340  -2.644   6.8595  15.2544   9.57  -6.23  -7.75
  1484.86870  -1.185   6.8576  15.2075   7.85  -3.86  -7.11
  1485.03130   0.076   9.5054  17.8544  11.81  -6.25  -7.71
  1485.21780  -2.328   6.8595  15.2075   7.85  -3.86  -7.11
  1485.22050  -1.028   6.8595  15.2075   7.85  -3.86  -7.11
  1485.50330   0.384   9.5054  17.8518  11.81  -6.26  -7.71
  1486.42410  -2.606  10.3902  18.7314   9.65  -5.40  -7.59
  1489.47300  -2.620  10.4153  18.7394   9.65  -5.40  -7.59
  1490.90760  -3.327  10.4153  18.7314   9.65  -5.40  -7.59
  1492.63220  -5.306  10.4153  18.7218  14.87  -5.33  -7.54
  1500.30220  -1.953  10.4153  18.6793   9.78  -5.76  -7.71
  1500.58790  -4.652  10.3902  18.6527   9.66  -5.34  -7.54
  1503.31070  -5.455  10.3902  18.6377   9.66  -5.34  -7.54
  1505.15730  -4.318  10.4153  18.6527   9.67  -5.34  -7.54
  1507.89670  -6.226  10.4153  18.6377   9.67  -5.34  -7.54
  1508.73160  -1.284   6.8576  15.0754   8.80  -4.03  -7.25
  1509.09210  -0.320   6.8595  15.0754   8.80  -4.03  -7.25
  1512.06390  -0.576   6.8576  15.0573   8.80  -4.16  -7.26
  1513.56340  -0.005  10.3902  18.5819   9.72  -5.58  -7.65
  1516.19880  -5.343   5.3096  13.4870   5.88  -6.58  -7.92
  1516.90420   0.250  10.4153  18.5889   9.72  -5.58  -7.65
  1517.72750  -4.640   5.3230  13.4922   5.87  -6.58  -7.92
  1518.21230  -0.704  10.4153  18.5819   9.72  -5.58  -7.65
  1518.69330  -6.871   5.3230  13.4870   5.88  -6.58  -7.92
  1521.77610  -5.071   5.3448  13.4922   5.87  -6.58  -7.92
  1522.74700  -6.505   5.3448  13.4870   5.88  -6.58  -7.92
  1526.70660  -0.595   0.0000   8.1211   9.04  -5.91  -7.75
  1533.43120  -0.277   0.0356   8.1211   9.04  -5.91  -7.75
  1546.41970  -2.103   9.8368  17.8544  11.81  -5.75  -7.71
  1546.93160  -2.828   9.8368  17.8518  11.81  -5.75  -7.71
  1547.32700  -1.909   9.8389  17.8518  11.81  -5.75  -7.71
  1552.21870  -4.693  12.1471  20.1347  13.14  -5.29  -7.53
  1555.11540  -5.118  12.1471  20.1199  13.14  -5.29  -7.53
  1562.45140  -0.882   6.8576  14.7929   8.06  -4.20  -7.23
  1562.83800  -2.026   6.8595  14.7929   8.06  -4.20  -7.23
  1562.84160  -0.725   6.8595  14.7929   8.06  -4.20  -7.23
  1563.36820  -1.721   6.8576  14.7882   8.28  -4.37  -7.23
  1563.75520  -0.761   6.8595  14.7882   8.28  -4.37  -7.23
  1563.89650  -8.608  12.5254  20.4534   8.93  -4.86  -7.39
  1563.92830  -6.626  12.5256  20.4534   8.93  -4.86  -7.39
  1564.06720  -0.971   6.8576  14.7847   8.33  -4.36  -7.23
  1566.91800  -6.119  12.5256  20.4383   8.94  -4.86  -7.39
  1585.09130  -8.799  12.5254  20.3474   8.98  -4.92  -7.36
  1585.12390  -9.049  12.5256  20.3474   8.97  -4.92  -7.36
  1601.38590  -5.706  12.1471  19.8895   9.52  -5.29  -7.52
  1616.32590  -5.109   6.8576  14.5284   9.16  -5.94  -7.76
  1616.73960  -3.953   6.8595  14.5284   9.16  -5.94  -7.76
  1621.55950  -4.312   6.8576  14.5036   9.15  -5.92  -7.76
  1621.97580  -4.026   6.8595  14.5036   9.15  -5.92  -7.76
  1624.61540  -4.573   6.8576  14.4892   9.15  -5.93  -7.76
  1629.38230  -2.675  12.5254  20.1347  13.14  -5.17  -7.57
  1629.41680  -1.823  12.5256  20.1347  13.14  -5.17  -7.57
  1632.57440  -2.080  12.5254  20.1199  13.14  -5.17  -7.57
  1637.70760  -6.229   5.3096  12.8803   7.69  -5.40  -7.48
  1638.13770  -3.443   8.1211  15.6898   9.12  -4.21  -6.99
  1638.36530  -7.387   5.3096  12.8772   7.69  -5.39  -7.48
  1638.66380  -3.270   8.1211  15.6874   9.10  -4.47  -6.96
  1640.61830  -7.763   5.3230  12.8803   7.69  -5.40  -7.48
  1641.27830  -5.797   5.3230  12.8772   7.69  -5.39  -7.48
  1645.31780  -3.368   8.1211  15.6568   9.11  -3.69  -7.05
  1645.35010  -4.955   5.3448  12.8803   7.69  -5.40  -7.48
  1646.47190  -2.982   8.1211  15.6515   9.13  -3.71  -7.11
  1649.52430  -5.226   5.3230  12.8395   8.53  -5.54  -7.58
  1654.30760  -5.575   5.3448  12.8395   8.53  -5.54  -7.58
  1654.31120  -4.275   5.3448  12.8394   8.53  -5.54  -7.58
  1661.07300  -1.007  10.3902  17.8544  11.81  -6.25  -7.71
  1661.66370  -1.448  10.3902  17.8518  11.81  -6.26  -7.71
  1666.67390  -1.388  10.4153  17.8544  11.81  -6.25  -7.71
  1667.26860  -0.685  10.4153  17.8518  11.81  -6.26  -7.71
  1679.73420  -5.128   8.1211  15.5024   9.05  -4.11  -6.99
  1679.98250  -6.370   8.1211  15.5013   9.05  -4.09  -6.99
  1683.64480  -2.714  12.5254  19.8895   9.56  -5.17  -7.52
  1683.68170  -3.291  12.5256  19.8895   9.56  -5.17  -7.52
  1687.93610  -4.053  12.5254  19.8708   9.56  -5.17  -7.52
  1687.97310  -2.467  12.5256  19.8708   9.56  -5.17  -7.52
  1690.94780  -7.549   8.1211  15.4534   9.48  -5.91  -7.75
  1691.61430  -6.820   8.1211  15.4505   9.52  -5.91  -7.75
  1692.35090  -6.187   6.8595  14.1857   6.03  -6.53  -7.92
  1694.40410  -5.234   6.8576  14.1749   6.04  -6.56  -7.92
  1694.85870  -4.893   6.8595  14.1749   6.03  -6.56  -7.92
  1696.17190  -4.648   6.8576  14.1673   5.99  -6.46  -7.92
  1696.62740  -5.523   6.8595  14.1673   5.97  -6.46  -7.92
  1699.61570  -6.154   8.1211  15.4160   9.72  -5.91  -7.75
  1699.96240  -6.317   8.1211  15.4145   9.69  -5.91  -7.75
  1704.52500  -2.128   6.8576  14.1315   7.78  -4.87  -7.33
  1704.95050  -1.413   6.8576  14.1296   7.79  -4.86  -7.33
  1704.98510  -1.170   6.8595  14.1315   7.78  -4.87  -7.33
  1705.37440  -3.049   9.5054  16.7757   9.55  -6.49  -7.81
  1710.83560  -0.569   6.8576  14.1046   8.29  -4.68  -7.38
  1711.29910  -1.714   6.8595  14.1046   8.29  -4.68  -7.38
  1711.30400  -0.413   6.8595  14.1046   8.29  -4.68  -7.38
  1734.96050  -2.603   8.1211  15.2674   9.11  -4.68  -7.10
  1736.19670  -3.048   8.1211  15.2623   9.09  -4.99  -7.10
  1738.13200  -5.071   8.1211  15.2544   9.68  -5.91  -7.75
  1782.85790  -1.728   8.1211  15.0754   9.23  -4.03  -7.25
  1786.83110  -0.268   9.8368  16.7757   9.78  -5.75  -7.79
  1787.02900  -1.222   9.8368  16.7749   9.78  -5.75  -7.79
  1787.35870  -1.223   9.8389  16.7757   9.78  -5.75  -7.79
  1787.51300  -2.033   8.1211  15.0573   9.23  -4.16  -7.26
  1787.55670  -0.071   9.8389  16.7749   9.78  -5.75  -7.79
  1798.28110  -3.292  10.0665  16.9612  14.18  -5.68  -7.65
  1800.22280  -2.972  10.0740  16.9612  14.18  -5.68  -7.65
  1800.22280  -3.699  10.0740  16.9612  14.18  -5.68  -7.65
  1808.01260  -2.380   0.0000   6.8576   5.93  -6.59  -7.92
  1809.58760  -7.775  12.1471  18.9987   8.83  -5.29  -7.53
  1811.19360  -5.446  12.1471  18.9926   8.84  -5.29  -7.53
  1816.92850  -2.180   0.0356   6.8595   5.90  -6.59  -7.92
  1817.45120  -3.290   0.0356   6.8576   5.93  -6.59  -7.92
  1836.22660  -6.084  12.1471  18.8993   8.95  -5.29  -7.53
  1836.68190  -6.953  12.1471  18.8976   8.95  -5.29  -7.53
  1855.11750  -4.499  12.8395  19.5229  12.72  -5.20  -7.58
  1856.83190  -4.445  12.8394  19.5167   8.79  -5.37  -7.58
  1856.83640  -6.466  12.8395  19.5167   8.79  -5.37  -7.58
  1859.65760  -1.988   8.1211  14.7882   9.11  -4.37  -7.23
  1860.30350  -7.384  12.8394  19.5042   8.76  -5.54  -7.58
  1860.30800  -6.479  12.8395  19.5042   8.76  -5.54  -7.58
  1860.64690  -2.251   8.1211  14.7847   9.11  -4.36  -7.23
  1861.71410  -5.247  10.0665  16.7263   8.33  -5.68  -7.69
  1863.79530  -4.569  10.0740  16.7263   8.33  -5.68  -7.69
  1864.43780  -4.673  12.8394  19.4895   8.78  -5.54  -7.58
  1864.44240  -7.521  12.8395  19.4895   8.78  -5.54  -7.58
  1864.86930  -6.673  12.8772  19.5257   8.51  -5.39  -7.48
  1865.65910  -3.290  12.8772  19.5229  12.72  -5.20  -7.48
  1865.72210  -6.918  12.8803  19.5257   8.51  -5.40  -7.48
  1866.51260  -3.891  12.8803  19.5229  12.72  -5.20  -7.48
  1868.25270  -3.220  12.8803  19.5167   8.51  -5.37  -7.48
  1868.76590  -4.758   6.8576  13.4922   6.20  -6.58  -7.92
  1869.31890  -3.004   6.8595  13.4922   6.19  -6.58  -7.92
  1870.23030  -3.315   6.8576  13.4870   6.20  -6.58  -7.92
  1870.78420  -3.690   6.8595  13.4870   6.19  -6.58  -7.92
  1872.40780  -3.381  12.8394  19.4612   8.76  -5.24  -7.58
  1875.95260  -3.333  12.8803  19.4895   8.50  -5.40  -7.48
  1877.75900  -4.685  12.8394  19.4423   8.87  -5.54  -7.58
  1877.75900  -4.744  12.8394  19.4423   8.76  -5.27  -7.58
  1877.76360  -3.544  12.8395  19.4423   8.76  -5.27  -7.58
  1882.28310  -5.755  12.8394  19.4264   8.87  -5.54  -7.58
  1882.28770  -4.728  12.8395  19.4264   8.87  -5.54  -7.58
  1882.52760  -7.839  12.8394  19.4256   8.87  -5.54  -7.58
  1882.53220  -6.955  12.8395  19.4256   8.87  -5.54  -7.58
  1883.04730  -8.461  12.1471  18.7314   8.79  -5.29  -7.53
  1888.13520  -8.089  10.0740  16.6405   8.37  -5.68  -7.68
  1890.80020  -5.310  10.0665  16.6239   8.37  -5.68  -7.68
  1892.94700  -4.610  10.0740  16.6239   8.37  -5.68  -7.68
  1893.02300  -5.171  10.0665  16.6162   8.37  -5.68  -7.68
  1894.26770  -6.531  12.8803  19.4256   8.65  -5.40  -7.48
  1895.17480  -6.189  10.0740  16.6162   8.37  -5.68  -7.68
  1902.18290  -6.510  13.9353  20.4534   8.48  -4.66  -7.38
  1902.45070   0.041   9.8389  16.3560   9.72  -5.75  -7.79
  1905.83610  -5.060  12.1471  18.6527   8.91  -5.29  -7.53
  1906.60750  -5.797  13.9353  20.4383   8.52  -4.66  -7.38
  1910.23030  -5.729  12.1471  18.6377   8.90  -5.29  -7.53
  1910.63570  -0.118   9.8368  16.3260   9.72  -5.75  -7.79
  1911.23900  -1.296   9.8389  16.3260   9.72  -5.75  -7.79
  1915.33270  -5.611  12.5254  18.9987   9.01  -5.17  -7.57
  1917.13200  -4.739  12.5254  18.9926   9.02  -5.17  -7.57
  1917.17980  -3.783  12.5256  18.9926   9.01  -5.17  -7.57
  1917.95120  -5.362  12.8394  19.3039   8.81  -5.48  -7.58
  1919.02230  -5.364  12.8394  19.3003   8.82  -5.50  -7.58
  1919.02700  -6.553  12.8395  19.3003   8.82  -5.50  -7.58
  1920.21620  -6.989  12.8394  19.2963   8.81  -5.48  -7.58
  1920.22100  -7.043  12.8395  19.2963   8.82  -5.48  -7.58
  1920.47140  -6.821  12.5254  18.9814   9.01  -5.17  -7.57
  1920.51930  -6.418  12.5256  18.9814   9.01  -5.17  -7.57
  1920.60450  -6.698  12.8395  19.2950   8.81  -5.48  -7.58
  1921.08680  -4.261  12.8394  19.2934   8.87  -5.54  -7.58
  1921.09150  -5.405  12.8395  19.2934   8.87  -5.54  -7.58
  1922.49760  -6.977  12.8394  19.2886   8.87  -5.54  -7.58
  1922.50240  -4.315  12.8395  19.2886   8.87  -5.54  -7.58
  1926.81530  -5.641  12.1471  18.5819   9.15  -5.29  -7.53
  1931.90570  -5.916  12.8772  19.2950   8.56  -5.39  -7.48
  1932.43250  -5.725  12.8803  19.2963   8.56  -5.40  -7.48
  1932.82090  -6.710  12.8803  19.2950   8.56  -5.40  -7.48
  1933.62480  -8.114  13.9353  20.3474   8.59  -4.66  -7.36
  1933.63080  -7.989  13.9353  20.3474   8.59  -4.66  -7.36
  1934.74310  -5.025  12.8803  19.2886   8.65  -5.40  -7.48
  1941.32730  -4.562  12.5256  18.9122   9.09  -5.17  -7.57
  1941.68910  -0.712  10.3902  16.7757   9.82  -6.55  -7.81
  1942.31860  -2.312  10.0665  16.4499   8.35  -5.68  -7.69
  1942.58080  -4.907   8.1211  14.5036   9.40  -5.91  -7.75
  1944.09750  -5.450  12.5254  18.9029   9.09  -5.17  -7.57
  1944.14660  -7.457  12.5256  18.9029   9.09  -5.17  -7.57
  1944.58400  -1.618  10.0740  16.4499   8.35  -5.68  -7.69
  1945.20170  -6.210  12.5254  18.8993   9.10  -5.17  -7.57
  1945.25090  -4.871  12.5256  18.8993   9.09  -5.17  -7.57
  1945.49650  -2.011  10.0665  16.4395   8.35  -5.68  -7.69
  1945.71270  -5.397  12.5254  18.8976   9.10  -5.17  -7.57
  1946.96810  -5.605   8.1211  14.4892   9.40  -5.91  -7.75
  1947.76940  -2.330  10.0740  16.4395   8.35  -5.68  -7.69
  1949.34660  -1.410  10.4153  16.7757   9.82  -6.55  -7.81
  1949.58220  -0.480  10.4153  16.7749   9.82  -6.55  -7.81
  1952.68490  -6.695  13.7853  20.1347  13.14  -4.81  -7.36
  1957.27120  -7.913  13.7853  20.1199  13.14  -4.81  -7.36
  1968.93800  -8.715  14.1563  20.4534   8.20  -4.69  -7.39
  1970.95870  -7.215  10.0740  16.3646   8.34  -5.68  -7.69
  1973.53140  -4.460  10.0665  16.3490   8.34  -5.68  -7.69
  1973.67900  -6.915  14.1563  20.4383   8.27  -4.69  -7.39
  1973.67900  -8.460  14.1563  20.4383   8.27  -4.69  -7.39
  1975.87030  -3.792  10.0740  16.3490   8.34  -5.68  -7.69
  1976.53610  -3.842  10.0665  16.3394   8.34  -5.68  -7.69
  1978.88220  -4.163  10.0740  16.3394   8.34  -5.68  -7.69
  1991.41500  -3.053  12.5256  18.7516   8.99  -5.17  -7.57
  1995.24930  -3.227  12.5254  18.7394   8.99  -5.17  -7.57
  1995.30110  -4.214  12.5256  18.7394   8.99  -5.17  -7.57
  1997.82440  -5.684  12.5254  18.7314   8.98  -5.17  -7.57
  1997.87630  -6.813  12.5256  18.7314   8.98  -5.17  -7.57
  1999.94240  -3.310  13.9353  20.1347  13.14  -4.66  -7.38
  1999.94880  -2.425  13.9353  20.1347  13.14  -4.66  -7.38
  2000.27430  -2.699  12.5254  18.7218  14.87  -5.17  -7.54
  2000.32630  -0.964  12.5256  18.7218  14.87  -5.17  -7.57
  2000.32630  -3.831  12.5256  18.7218  14.87  -5.17  -7.54
  2002.00310  -9.463  14.1563  20.3474   8.39  -4.69  -7.36
  2004.10490  -2.682  13.9353  20.1199  13.14  -4.66  -7.38
  2004.16070  -1.575   9.5054  15.6898   9.13  -4.21  -6.99
  2004.94870  -1.469   9.5054  15.6874   9.11  -4.47  -6.96
  2014.07910  -1.140  12.5254  18.6793   9.41  -5.17  -7.57
  2014.13190  -2.259  12.5256  18.6793   9.41  -5.17  -7.57
  2014.92360  -1.270   9.5054  15.6568   9.11  -3.69  -7.05
  2016.65550  -0.887   9.5054  15.6515   9.13  -3.71  -7.11
  2022.84270  -5.896  12.5254  18.6527   9.06  -5.17  -7.54
  2022.89590  -4.845  12.5256  18.6527   9.06  -5.17  -7.54
  2027.79600  -5.487  12.5254  18.6377   9.06  -5.17  -7.54
  2030.48220  -6.564  13.7853  19.8895   9.49  -4.81  -7.36
  2044.12680  -3.221  12.5254  18.5889   9.25  -5.17  -7.57
  2044.18110  -2.938  12.5256  18.5889   9.25  -5.17  -7.57
  2046.50400  -3.021  12.5254  18.5819   9.25  -5.17  -7.57
  2046.55850  -4.078  12.5256  18.5819   9.25  -5.17  -7.57
  2048.23600  -1.995   9.8368  15.8882   9.57  -2.81  -6.89
  2048.92960  -1.835   9.8389  15.8882   9.56  -2.81  -6.89
  2048.92960  -3.137   9.8389  15.8882   9.56  -2.81  -6.89
  2052.51550  -5.271  13.4870  19.5257   8.44  -5.58  -7.69
  2053.47270  -0.977  13.4870  19.5229  12.72  -5.20  -7.69
  2055.24190  -1.987  13.4922  19.5229  12.72  -5.20  -7.69
  2055.58000  -3.179  13.4870  19.5167   8.44  -5.37  -7.69
  2057.35280  -0.924  13.4922  19.5167   8.44  -5.37  -7.69
  2057.97540  -2.122   6.8576  12.8803   7.70  -5.40  -7.48
  2058.64640  -1.167   6.8595  12.8803   7.70  -5.40  -7.48
  2059.01450  -1.419   6.8576  12.8772   7.70  -5.39  -7.48
  2061.61740  -2.645  13.4922  19.5042   8.37  -5.67  -7.63
  2062.20650  -2.309   8.1211  14.1315   9.06  -4.87  -7.33
  2062.82950  -2.600   8.1211  14.1296   9.06  -4.86  -7.33
  2064.90960  -2.725  13.4870  19.4895   8.42  -5.64  -7.68
  2066.69850  -1.067  13.4922  19.4895   8.42  -5.64  -7.68
  2066.80740  -1.726   9.5054  15.5024   9.06  -4.11  -6.99
  2067.18360  -2.064   9.5054  15.5013   9.05  -4.09  -6.99
  2072.01470  -0.199   6.8576  12.8395   8.54  -5.54  -7.58
  2072.69480  -1.345   6.8595  12.8395   8.54  -5.54  -7.58
  2072.70040  -0.044   6.8595  12.8394   8.53  -5.54  -7.58
  2081.58580  -0.984   9.8368  15.7912   9.56  -3.09  -6.86
  2081.65340  -3.842  13.9353  19.8895   9.49  -4.66  -7.38
  2081.66030  -4.182  13.9353  19.8895   9.49  -4.66  -7.38
  2082.30210  -0.831   9.8389  15.7912   9.56  -3.09  -6.86
  2082.30210  -2.132   9.8389  15.7912   9.56  -3.09  -6.86
  2083.08670  -2.043  13.4922  19.4423   8.37  -5.27  -7.71
  2083.81850  -5.816   9.5054  15.4534   9.49  -6.25  -7.85
  2084.83120  -5.079   9.5054  15.4505   9.52  -6.34  -7.85
  2087.13190  -2.417  13.4870  19.4256   8.60  -5.64  -7.71
  2088.22020  -4.619  13.9353  19.8708   9.49  -4.66  -7.38
  2088.22720  -3.586  13.9353  19.8708   9.49  -4.66  -7.38
  2088.65830  -3.112  13.4922  19.4264   8.60  -5.68  -7.71
  2088.95950  -4.290  13.4922  19.4256   8.60  -5.64  -7.71
  2096.96440  -5.016  10.4153  16.3260   9.77  -5.94  -7.81
  2097.00360  -4.756   9.5054  15.4160   9.72  -6.17  -7.85
  2097.53160  -4.470   9.5054  15.4145   9.69  -6.18  -7.85
  2117.66430  -1.633   9.8368  15.6898   9.58  -4.21  -6.99
  2118.54400  -2.468   9.8368  15.6874   9.58  -4.47  -6.96
  2119.28600  -1.488   9.8389  15.6874   9.57  -4.47  -6.96
  2128.51310  -1.378   9.8368  15.6600   9.56  -3.31  -6.93
  2129.26210  -1.226   9.8389  15.6600   9.56  -3.31  -6.93
  2129.26210  -2.526   9.8389  15.6600   9.56  -3.31  -6.93
  2129.68400  -1.885   9.8368  15.6568   9.58  -3.69  -7.05
  2131.61880  -2.475   9.8368  15.6515   9.59  -3.71  -7.11
  2132.37000  -1.454   9.8389  15.6515   9.58  -3.71  -7.11
  2133.57980  -1.994  13.4870  19.2963   8.50  -5.48  -7.73
  2134.01250  -0.862  13.4922  19.3003   8.51  -5.50  -7.73
  2134.05350  -3.428  13.4870  19.2950   8.49  -5.48  -7.73
  2135.48970  -4.669  13.4922  19.2963   8.50  -5.48  -7.73
  2135.96420  -4.358  13.4922  19.2950   8.49  -5.48  -7.73
  2136.39790   0.075  13.4870  19.2886   8.60  -6.08  -7.73
  2136.56690   0.190  13.4922  19.2934   8.59  -5.97  -7.73
  2138.31290  -1.172  13.4922  19.2886   8.60  -6.08  -7.73
  2151.09540  -1.361   9.5054  15.2674   9.12  -4.68  -7.10
  2152.49810  -8.473  14.6951  20.4534   8.24  -4.24  -7.24
  2152.50130  -6.223  14.6951  20.4534   8.23  -4.24  -7.24
  2152.99690  -1.687   9.5054  15.2623   9.10  -4.99  -7.10
  2155.97500  -2.985   9.5054  15.2544   9.68  -6.23  -7.75
  2158.17120  -5.362  14.6951  20.4383   8.30  -4.24  -7.24
  2168.99230  -6.239  14.1563  19.8708   9.47  -4.69  -7.42
  2171.72500  -2.904  12.1471  17.8544  11.81  -5.29  -7.53
  2172.73520  -2.616  12.1471  17.8518  11.81  -5.29  -7.53
  2187.72930  -3.062   9.8368  15.5024   9.56  -4.11  -6.99
  2188.15080  -2.421   9.8368  15.5013   9.56  -4.09  -6.99
  2188.52060  -2.037   9.8389  15.5024   9.56  -4.11  -6.99
  2192.87240  -7.747  14.6951  20.3474   8.41  -4.24  -7.24
  2192.87570  -7.916  14.6951  20.3474   8.41  -4.24  -7.24
  2197.90630  -1.363   9.8368  15.4761   9.56  -3.57  -7.01
  2198.70490  -2.511   9.8389  15.4761   9.56  -3.57  -7.01
  2198.70780  -1.210   9.8389  15.4761   9.56  -3.57  -7.01
  2202.55410  -8.463  14.8260  20.4534   8.10  -3.54  -7.25
  2206.79770  -5.769   9.8368  15.4534   9.75  -5.75  -7.79
  2207.93350  -6.382   9.8368  15.4505   9.77  -5.75  -7.79
  2208.49100  -6.644  14.8260  20.4383   8.18  -3.54  -7.25
  2208.49100  -8.190  14.8260  20.4383   8.18  -3.54  -7.25
  2208.73940  -4.991   9.8389  15.4505   9.76  -5.75  -7.79
  2210.28670  -7.514   9.8368  15.4445   9.80  -5.75  -7.79
  2211.09440  -5.857   9.8389  15.4445   9.80  -5.75  -7.79
  2216.87590  -5.502   9.8389  15.4299   9.89  -5.67  -7.79
  2221.59000  -4.559   9.8368  15.4160   9.89  -5.75  -7.79
  2222.18270  -6.334   9.8368  15.4145   9.87  -5.75  -7.79
  2222.59770  -5.237   9.8368  15.4135   9.84  -5.75  -7.79
  2222.99910  -4.200   9.8389  15.4145   9.87  -5.75  -7.79
  2223.41450  -4.510   9.8389  15.4135   9.84  -5.75  -7.79
  2225.24780  -1.019   9.5054  15.0754   9.24  -4.03  -7.25
  2232.50740  -1.260   9.5054  15.0573   9.24  -4.16  -7.26
  2244.84600  -9.197  14.8260  20.3474   8.33  -3.54  -7.25
  2247.44380  -6.281  14.6197  20.1347  13.14  -4.39  -7.22
  2253.52390  -6.353  14.6197  20.1199  13.14  -4.39  -7.22
  2264.76220  -4.949  10.4153  15.8882   9.64  -2.81  -6.89
  2278.59520  -3.758  14.6951  20.1347  13.14  -4.24  -7.24
  2278.59890  -2.857  14.6951  20.1347  13.14  -4.24  -7.24
  2282.39170  -2.030   9.8368  15.2674   9.58  -4.68  -7.10
  2283.25290  -1.037   9.8389  15.2674   9.58  -4.68  -7.10
  2284.53240  -1.386   9.8368  15.2623   9.57  -4.99  -7.10
  2284.84520  -3.115  14.6951  20.1199  13.14  -4.24  -7.24
  2287.58300  -4.022  14.1046  19.5229  12.72  -4.68  -7.38
  2287.88570  -3.819   9.8368  15.2544   9.86  -5.75  -7.75
  2288.75110  -2.817   9.8389  15.2544   9.86  -5.75  -7.75
  2290.18940  -3.980  14.1046  19.5167   8.67  -4.68  -7.38
  2290.19830  -5.276  14.1046  19.5167   8.67  -4.68  -7.38
  2295.47490  -6.303  14.1046  19.5042   8.63  -4.68  -7.38
  2295.48390  -6.166  14.1046  19.5042   8.63  -4.68  -7.38
  2296.99560  -6.993  14.1296  19.5257   8.53  -4.86  -7.33
  2297.76860  -7.097  14.1315  19.5257   8.53  -4.87  -7.33
  2298.19440  -2.829  14.1296  19.5229  12.72  -4.86  -7.33
  2298.96820  -3.492  14.1315  19.5229  12.72  -4.87  -7.33
  2301.60960  -2.766  14.1315  19.5167   8.52  -4.87  -7.33
  2301.77550  -4.464  14.1046  19.4895   8.66  -4.68  -7.38
  2301.78450  -6.056  14.1046  19.4895   8.66  -4.68  -7.38
  2305.60390  -4.530  10.4153  15.7912   9.63  -3.09  -6.86
  2307.85930  -1.175   9.8368  15.2075   9.56  -3.86  -7.11
  2308.52610  -2.003  10.0665  15.4357   8.16  -3.68  -7.02
  2308.73990  -2.323   9.8389  15.2075   9.56  -3.86  -7.11
  2308.74630  -1.022   9.8389  15.2075   9.56  -3.86  -7.11
  2309.92000  -6.219   8.1211  13.4870   9.04  -5.91  -7.75
  2311.72830  -1.748  10.0740  15.4357   8.17  -3.69  -7.02
  2311.72830  -2.703  10.0740  15.4357   8.17  -3.68  -7.02
  2313.13090  -1.904  14.1673  19.5257   8.44  -5.58  -7.69
  2313.31180  -2.900  14.1315  19.4895   8.51  -4.87  -7.33
  2313.94000  -3.278  14.1046  19.4612   8.63  -4.68  -7.38
  2314.34660  -2.852  14.1673  19.5229  12.72  -5.20  -7.69
  2317.02350  -4.537  14.1673  19.5167   8.43  -5.37  -7.69
  2317.64720  -2.695  14.1749  19.5229  12.72  -5.20  -7.69
  2320.26120  -2.285  10.0665  15.4085   8.23  -3.99  -7.01
  2320.33170  -2.514  14.1749  19.5167   8.43  -5.37  -7.69
  2322.12130  -3.188  14.1046  19.4423   8.77  -4.68  -7.38
  2322.12130  -4.827  14.1046  19.4423   8.63  -4.68  -7.38
  2322.13050  -3.486  14.1046  19.4423   8.63  -4.68  -7.38
  2323.49600  -1.984  10.0740  15.4085   8.23  -3.99  -7.01
  2325.05030  -1.813  14.1857  19.5167   8.43  -5.37  -7.69
  2325.75740  -3.534  14.1749  19.5042   8.37  -5.67  -7.63
  2325.89810  -3.764  12.5254  17.8544  11.81  -5.17  -7.57
  2327.05680  -4.220  12.5254  17.8518  11.81  -5.17  -7.57
  2327.12720  -3.558  12.5256  17.8518  11.81  -5.17  -7.57
  2328.51660  -7.488   0.0000   5.3230   3.32  -6.65  -7.92
  2328.88330  -3.366  14.1673  19.4895   8.42  -5.64  -7.68
  2329.04670  -4.120  14.1046  19.4264   8.77  -4.68  -7.38
  2329.05590  -3.298  14.1046  19.4264   8.77  -4.68  -7.38
  2329.42120  -5.556  14.1046  19.4256   8.77  -4.68  -7.38
  2329.43040  -4.402  14.1046  19.4256   8.77  -4.68  -7.38
  2330.49810  -2.562  14.1857  19.5042   8.37  -5.67  -7.63
  2332.22550  -3.033  14.1749  19.4895   8.42  -5.64  -7.68
  2334.40740  -5.071   0.0000   5.3096   4.09  -6.65  -7.92
  2334.60480  -4.919   0.0356   5.3448   3.51  -6.65  -7.92
  2335.60030  -7.974  15.1465  20.4534   8.10  -4.04  -7.12
  2335.60360  -6.175  15.1465  20.4534   8.10  -4.06  -7.12
  2336.73920  -1.151  14.2000  19.5042   8.37  -5.67  -7.63
  2336.99270  -1.597  14.1857  19.4895   8.42  -5.64  -7.68
  2338.82280  -2.382  10.3902  15.6898   9.65  -4.21  -6.99
  2339.89590  -2.800  10.3902  15.6874   9.65  -4.47  -6.96
  2341.23690  -5.927  14.1315  19.4256   8.66  -4.87  -7.33
  2342.28030  -5.202  15.1465  20.4383   8.19  -4.06  -7.12
  2344.20180  -5.396   0.0356   5.3230   3.32  -6.65  -7.92
  2346.23320  -1.762   9.5054  14.7882   9.11  -4.37  -7.23
  2347.80870  -1.944   9.5054  14.7847   9.12  -4.36  -7.23
  2349.53320  -1.158  14.1857  19.4612   8.36  -5.24  -7.71
  2349.94630  -2.668  10.4153  15.6898   9.65  -4.21  -6.99
  2350.17230  -5.136   0.0356   5.3096   4.09  -6.65  -7.92
  2351.02960  -2.009  10.4153  15.6874   9.65  -4.47  -6.96
  2352.04420  -7.200  14.6197  19.8895   9.48  -4.39  -7.22
  2353.11550  -1.119  14.1749  19.4423   8.37  -5.27  -7.71
  2353.49230  -4.346  10.3902  15.6568   9.65  -3.69  -7.05
  2355.85510  -5.834  10.3902  15.6515   9.65  -3.71  -7.11
  2355.87680  -2.424  14.2000  19.4612   8.36  -5.24  -7.71
  2356.30440   0.597  14.2000  19.4602   8.61  -5.64  -7.71
  2357.18780   0.207  14.1673  19.4256   8.60  -5.64  -7.71
  2357.96850   0.456  14.1857  19.4423   8.60  -5.66  -7.71
  2357.96850  -1.967  14.1857  19.4423   8.37  -5.27  -7.71
  2360.22730   0.321  14.1749  19.4264   8.60  -5.68  -7.71
  2360.61180  -0.547  14.1749  19.4256   8.60  -5.64  -7.71
  2363.31250  -5.188  10.4153  15.6600   9.63  -3.31  -6.93
  2364.35780  -0.479  14.2000  19.4423   8.60  -5.66  -7.71
  2364.35780  -3.225  14.2000  19.4423   8.37  -5.27  -7.71
  2364.75600  -4.985  10.4153  15.6568   9.65  -3.69  -7.05
  2365.10970  -0.399  14.1857  19.4264   8.60  -5.68  -7.71
  2365.49580  -1.768  14.1857  19.4256   8.60  -5.64  -7.71
  2366.04620  -1.420   9.8368  15.0754   9.63  -4.03  -7.25
  2366.97180  -0.436   9.8389  15.0754   9.62  -4.03  -7.25
  2367.14160  -3.506  10.4153  15.6515   9.65  -3.71  -7.11
  2371.53780  -1.949  14.2000  19.4264   8.60  -5.68  -7.71
  2372.83760  -8.207  15.2298  20.4534   8.04  -2.82  -7.13
  2374.25500  -0.684   9.8368  15.0573   9.63  -4.16  -7.26
  2377.46130  -8.145  13.7853  18.9987   8.67  -4.81  -7.36
  2379.72920  -6.401  15.2298  20.4383   8.13  -2.82  -7.13
  2379.72920  -7.945  15.2298  20.4383   8.13  -2.82  -7.13
  2380.23530  -5.890  13.7853  18.9926   8.69  -4.81  -7.36
  2383.21000  -7.616  15.1465  20.3474   8.33  -4.04  -7.12
  2383.21340  -7.952  15.1465  20.3474   8.33  -4.06  -7.12
  2383.92440  -4.252  14.1046  19.3039   8.71  -4.68  -7.38
  2385.58000  -5.448  14.1046  19.3003   8.71  -4.68  -7.38
  2385.58960  -4.638  14.1046  19.3003   8.71  -4.68  -7.38
  2386.18420  -5.374  14.6951  19.8895   9.47  -4.24  -7.24
  2386.18810  -4.991  14.6951  19.8895   9.47  -4.24  -7.24
  2387.42600  -5.256  14.1046  19.2963   8.71  -4.68  -7.38
  2387.43570  -4.936  14.1046  19.2963   8.71  -4.68  -7.38
  2388.02880  -5.288  14.1046  19.2950   8.70  -4.68  -7.38
  2388.77240  -3.981  14.1046  19.2934   8.77  -4.68  -7.38
  2388.78210  -4.692  14.1046  19.2934   8.77  -4.68  -7.38
  2390.95500  -5.891  14.1046  19.2886   8.77  -4.68  -7.38
  2390.96470  -4.141  14.1046  19.2886   8.77  -4.68  -7.38
  2394.81630  -4.857  14.6951  19.8708   9.47  -4.24  -7.24
  2394.82030  -5.166  14.6951  19.8708   9.47  -4.24  -7.24
  2399.59470  -5.380  14.1296  19.2950   8.57  -4.86  -7.33
  2399.83900  -5.330  14.1315  19.2963   8.57  -4.87  -7.33
  2400.43830  -6.027  14.1315  19.2950   8.57  -4.87  -7.33
  2403.40480  -5.275  14.1315  19.2886   8.66  -4.87  -7.33
  2416.60110  -1.072  14.1673  19.2963   8.49  -5.48  -7.73
  2417.20890  -0.919  14.1673  19.2950   8.49  -5.48  -7.73
  2418.30300  -0.866  14.1749  19.3003   8.51  -5.50  -7.73
  2420.20000  -0.921  14.1749  19.2963   8.49  -5.48  -7.73
  2420.21700  -2.590  14.1673  19.2886   8.60  -6.08  -7.73
  2420.80960  -1.548  14.1749  19.2950   8.49  -5.48  -7.73
  2421.58370  -2.527  14.1749  19.2934   8.59  -5.97  -7.73
  2421.72040  -0.881  14.1857  19.3039   8.49  -5.48  -7.73
  2421.99320  -8.961  15.2298  20.3474   8.29  -2.82  -7.13
  2423.42890  -0.816  14.1857  19.3003   8.51  -5.50  -7.73
  2423.67450  -5.791  13.7853  18.8993   8.84  -4.81  -7.36
  2423.82670  -2.341  14.1749  19.2886   8.60  -6.08  -7.73
  2424.46800  -6.419  13.7853  18.8976   8.84  -4.81  -7.36
  2424.57920  -2.553  10.3902  15.5024   9.63  -4.11  -6.99
  2425.09680  -2.385  10.3902  15.5013   9.63  -4.09  -6.99
  2425.33390  -1.481  14.1857  19.2963   8.49  -5.48  -7.73
  2426.72350  -1.682  14.1857  19.2934   8.59  -5.97  -7.73
  2427.62810 -11.140   5.3096  10.4153   9.63  -6.55  -7.81
  2427.62810 -11.903   5.3096  10.4153   9.63  -6.55  -7.81
  2428.46030  -0.539  14.2000  19.3039   8.49  -5.48  -7.73
  2428.97600  -3.323  14.1857  19.2886   8.60  -6.08  -7.73
  2430.17830  -1.646  14.2000  19.3003   8.51  -5.50  -7.73
  2433.49130  -2.770  14.2000  19.2934   8.59  -5.97  -7.73
  2434.03170 -10.812   5.3230  10.4153   9.63  -6.55  -7.81
  2436.53530  -1.910  10.4153  15.5024   9.63  -4.11  -6.99
  2437.05810  -2.674  10.4153  15.5013   9.63  -4.09  -6.99
  2439.61440 -10.855   5.3096  10.3902   9.63  -6.55  -7.81
  2439.94310  -1.697  10.0665  15.1465   8.22  -4.04  -7.12
  2443.51690  -1.443  10.0740  15.1465   8.22  -4.06  -7.12
  2443.52050  -2.397  10.0740  15.1465   8.22  -4.04  -7.12
  2444.46520 -10.682   5.3448  10.4153   9.63  -6.55  -7.81
  2446.08140 -11.685   5.3230  10.3902   9.63  -6.55  -7.81
  2447.91380  -5.701  13.9353  18.9987   8.67  -4.66  -7.38
  2448.02110  -5.978  10.3902  15.4534   9.79  -6.25  -7.81
  2449.16490  -5.354  10.4153  15.4761   9.63  -3.57  -7.01
  2449.41870  -5.586  10.3902  15.4505   9.81  -6.34  -7.81
  2450.85460  -4.807  13.9353  18.9926   8.68  -4.66  -7.38
  2450.86420  -3.862  13.9353  18.9926   8.68  -4.66  -7.38
  2456.31690  -7.890  13.9353  18.9814   8.67  -4.66  -7.38
  2456.32650  -7.101  13.9353  18.9814   8.67  -4.66  -7.38
  2456.61870 -11.963   5.3448  10.3902   9.63  -6.55  -7.81
  2456.93690  -5.850  14.8260  19.8708   9.46  -3.54  -7.25
  2460.21010  -5.398  10.4153  15.4534   9.79  -6.25  -7.81
  2460.91260  -2.039  10.0665  15.1032   8.29  -4.00  -7.11
  2461.01080  -2.148  14.4892  19.5257   9.22  -5.58  -7.69
  2461.62170  -4.740  10.4153  15.4505   9.81  -6.34  -7.81
  2462.38690  -2.931  14.4892  19.5229  12.72  -5.20  -7.69
  2463.42460  -6.173  15.1032  20.1347  13.14  -4.00  -7.11
  2464.54700  -6.315  10.4153  15.4445   9.84  -6.31  -7.81
  2464.55180  -1.739  10.0740  15.1032   8.30  -4.00  -7.11
  2466.23670  -6.261  10.3902  15.4160   9.92  -6.17  -7.81
  2466.96710  -5.093  10.3902  15.4145   9.91  -6.18  -7.81
  2468.05920  -2.727  14.5036  19.5257   9.23  -5.58  -7.69
  2469.44320  -2.952  14.5036  19.5229  12.72  -5.20  -7.69
  2470.20720  -6.187  15.4357  20.4534   8.03  -3.69  -7.02
  2470.20720  -7.711  15.4357  20.4534   8.03  -3.68  -7.02
  2470.73110  -6.308  15.1032  20.1199  13.14  -4.00  -7.11
  2472.49110  -2.086  14.5036  19.5167   9.23  -5.37  -7.69
  2477.67680  -5.117  15.4357  20.4383   8.13  -3.69  -7.02
  2478.60820  -6.222  10.4153  15.4160   9.92  -6.17  -7.81
  2479.34590  -5.312  10.4153  15.4145   9.91  -6.18  -7.81
  2479.83860  -4.570   9.5054  14.5036   9.40  -5.92  -7.76
  2479.86260  -5.253  10.4153  15.4135   9.88  -6.15  -7.81
  2481.68490  -4.435  14.5284  19.5229  12.72  -5.20  -7.69
  2484.76310  -2.345  14.5284  19.5167   9.23  -5.37  -7.69
  2484.80140  -4.133  15.1465  20.1347  13.14  -4.04  -7.12
  2484.80510  -3.220  15.1465  20.1347  13.14  -4.06  -7.12
  2486.00020  -1.989  14.5036  19.4895   9.23  -5.64  -7.68
  2486.99540  -5.218   9.5054  14.4892   9.40  -5.93  -7.76
  2490.48070  -6.530  13.9353  18.9122   8.84  -4.66  -7.38
  2490.98590  -1.385  14.5284  19.5042   9.22  -5.67  -7.63
  2492.23540  -3.481  15.1465  20.1199  13.14  -4.04  -7.12
  2495.11430  -8.188  13.9353  18.9029   8.83  -4.66  -7.38
  2495.12430  -6.515  13.9353  18.9029   8.83  -4.66  -7.38
  2496.93420  -6.799  13.9353  18.8993   8.84  -4.66  -7.38
  2496.94420  -5.325  13.9353  18.8993   8.84  -4.66  -7.38
  2497.77650  -5.873  13.9353  18.8976   8.84  -4.66  -7.38
  2498.15350  -7.974  15.4918  20.4534   8.00  -2.94  -7.02
  2498.40700  -2.189  14.5284  19.4895   9.23  -5.64  -7.68
  2500.94480  -0.855   9.8368  14.7929   9.57  -4.20  -7.23
  2501.97890  -2.002   9.8389  14.7929   9.57  -4.20  -7.23
  2501.98830  -0.701   9.8389  14.7929   9.57  -4.20  -7.23
  2503.29530  -1.902   9.8368  14.7882   9.58  -4.37  -7.23
  2504.33130  -0.924   9.8389  14.7882   9.58  -4.37  -7.23
  2505.08880  -1.126   9.8368  14.7847   9.58  -4.36  -7.23
  2505.79340  -6.176  15.4918  20.4383   8.10  -2.94  -7.02
  2505.79340  -7.720  15.4918  20.4383   8.10  -2.94  -7.02
  2505.94790  -8.525  13.7853  18.7314   8.61  -4.81  -7.36
  2518.27850  -5.525  14.5036  19.4256   9.26  -5.64  -7.71
  2522.39490  -4.483  14.5284  19.4423   9.22  -5.27  -7.71
  2523.52450  -7.550  15.4357  20.3474   8.29  -3.68  -7.02
  2523.52450  -8.036  15.4357  20.3474   8.29  -3.69  -7.02
  2530.56820  -4.482  14.5284  19.4264   9.26  -5.68  -7.71
  2531.01030  -5.569  14.5284  19.4256   9.26  -5.64  -7.71
  2541.39070  -1.822  10.3902  15.2674   9.65  -4.68  -7.10
  2544.04510  -1.644  10.3902  15.2623   9.64  -4.99  -7.10
  2546.48440  -4.994  13.7853  18.6527   8.78  -4.81  -7.36
  2548.20400  -3.776  10.3902  15.2544   9.90  -6.23  -7.75
  2552.69720  -8.742  15.4918  20.3474   8.27  -2.94  -7.02
  2554.33830  -5.664  13.7853  18.6377   8.78  -4.81  -7.36
  2554.52960  -1.156  10.4153  15.2674   9.65  -4.68  -7.10
  2557.21150  -1.954  10.4153  15.2623   9.64  -4.99  -7.10
  2561.41360  -3.133  10.4153  15.2544   9.90  -6.23  -7.75
  2568.83440  -8.020  14.1563  18.9814   8.51  -4.69  -7.42
  2573.55110  -4.983  13.9353  18.7516   8.63  -4.66  -7.38
  2579.15920  -4.598  14.4892  19.2950   9.23  -5.48  -7.73
  2580.03660  -5.130  13.9353  18.7394   8.63  -4.66  -7.38
  2580.04720  -5.435  13.9353  18.7394   8.63  -4.66  -7.38
  2584.09160  -5.889  13.7853  18.5819   9.08  -4.81  -7.36
  2584.34550  -5.800  13.9353  18.7314   8.61  -4.66  -7.38
  2584.35620  -6.849  13.9353  18.7314   8.61  -4.66  -7.38
  2586.20560  -3.853  14.5036  19.2963   9.24  -5.48  -7.73
  2586.47390  -5.230  10.4153  15.2075   9.64  -3.86  -7.11
  2586.90160  -4.476  14.5036  19.2950   9.24  -5.48  -7.73
  2589.53390  -4.315  13.9353  18.7218  14.87  -4.66  -7.38
  2589.54460  -2.614  13.9353  18.7218  14.87  -4.66  -7.38
  2589.54460  -5.362  13.9353  18.7218  14.87  -4.66  -7.38
  2589.65600  -7.785  15.1032  19.8895   9.47  -4.00  -7.11
  2590.34710  -4.976  14.5036  19.2886   9.26  -5.92  -7.73
  2591.95170  -7.717  15.6713  20.4534   7.97  -2.85  -6.96
  2597.44670  -3.595  14.5284  19.3003   9.25  -5.50  -7.73
  2599.63530  -4.190  14.5284  19.2963   9.24  -5.48  -7.73
  2600.17690  -5.923  15.6713  20.4383   8.08  -2.85  -6.96
  2600.17690  -7.468  15.6713  20.4383   8.08  -2.85  -6.96
  2600.33860  -5.476  14.5284  19.2950   9.24  -5.48  -7.73
  2601.23170  -3.795  14.5284  19.2934   9.26  -5.94  -7.73
  2601.55740  -7.219   5.3096  10.0740   8.08  -5.68  -7.69
  2603.82000  -5.371  14.5284  19.2886   9.26  -5.94  -7.73
  2604.42110  -3.150   8.1211  12.8803   9.06  -5.40  -7.48
  2605.62470  -7.161   5.3096  10.0665   8.08  -5.68  -7.69
  2606.08520  -3.447   8.1211  12.8772   9.06  -5.39  -7.48
  2606.21230  -5.978  14.1563  18.9122   8.74  -4.69  -7.42
  2606.21230  -7.522  14.1563  18.9122   8.74  -4.69  -7.42
  2608.91260  -6.673   5.3230  10.0740   8.08  -5.68  -7.69
  2611.29790  -6.888  14.1563  18.9029   8.73  -4.69  -7.42
  2612.71480  -2.762  13.9353  18.6793   9.30  -4.66  -7.38
  2612.72570  -3.725  13.9353  18.6793   9.30  -4.66  -7.38
  2613.00300  -5.686   5.3230  10.0665   8.08  -5.68  -7.69
  2613.28990  -5.341  15.1465  19.8895   9.47  -4.04  -7.12
  2613.29400  -6.029  15.1465  19.8895   9.47  -4.06  -7.12
  2614.37930  -5.346  14.7847  19.5257   8.69  -4.36  -7.23
  2615.93230  -2.298  14.7847  19.5229  12.72  -4.36  -7.23
  2616.33560  -5.650  14.7882  19.5257   8.67  -4.37  -7.23
  2617.89100  -3.094  14.7882  19.5229  12.72  -4.37  -7.23
  2620.46650  -3.870  14.7929  19.5229  12.72  -4.20  -7.23
  2620.90270  -4.676   5.3448  10.0740   8.08  -5.68  -7.69
  2621.31650  -2.280  14.7882  19.5167   8.66  -4.37  -7.23
  2622.56050  -6.092  15.4085  20.1347  13.14  -3.99  -7.01
  2623.64670  -4.940  15.1465  19.8708   9.46  -4.04  -7.12
  2623.65080  -4.992  15.1465  19.8708   9.46  -4.06  -7.12
  2623.88840  -3.952  14.7929  19.5167   8.59  -4.20  -7.23
  2623.89870  -5.394  14.7929  19.5167   8.59  -4.20  -7.23
  2627.47950  -6.991  13.9353  18.6527   8.78  -4.66  -7.38
  2627.49060  -5.718  13.9353  18.6527   8.78  -4.66  -7.38
  2630.82840  -7.135  14.7929  19.5042   8.54  -4.20  -7.23
  2630.83880  -6.358  14.7929  19.5042   8.54  -4.20  -7.23
  2630.84300  -6.261  15.4085  20.1199  13.14  -3.99  -7.01
  2635.84170  -6.399  13.9353  18.6377   8.78  -4.66  -7.38
  2636.50560  -2.338  14.7882  19.4895   8.66  -4.37  -7.23
  2637.71540  -3.542  15.4357  20.1347  13.14  -3.69  -7.02
  2637.71540  -4.465  15.4357  20.1347  13.14  -3.68  -7.02
  2639.10750  -3.977  14.7929  19.4895   8.58  -4.20  -7.23
  2639.11790  -5.562  14.7929  19.4895   8.58  -4.20  -7.23
  2641.94970  -6.990   9.8368  14.5284   9.70  -5.75  -7.76
  2643.10370  -5.809   9.8389  14.5284   9.70  -5.75  -7.76
  2645.53800  -1.385  10.3902  15.0754   9.69  -4.03  -7.25
  2646.09400  -3.807  15.4357  20.1199  13.14  -3.68  -7.02
  2650.71580  -8.493  15.6713  20.3474   8.26  -2.85  -6.96
  2655.11040  -3.113  14.7929  19.4612   8.54  -4.20  -7.23
  2655.80460  -1.114  10.3902  15.0573   9.69  -4.16  -7.26
  2655.96610  -4.602   9.8368  14.5036   9.70  -5.75  -7.76
  2657.13240  -3.706   9.8389  14.5036   9.70  -5.75  -7.76
  2658.76280  -8.202   9.5054  14.1673   9.05  -6.46  -7.85
  2659.77870  -0.714  10.4153  15.0754   9.69  -4.03  -7.25
  2663.46730  -7.368  15.7997  20.4534   7.96  -3.08  -6.99
  2663.49860  -3.725  13.9353  18.5889   9.08  -4.66  -7.38
  2663.50990  -2.759  13.9353  18.5889   9.08  -4.66  -7.38
  2664.17720  -4.344   9.8368  14.4892   9.70  -5.75  -7.76
  2665.88730  -4.528  14.7929  19.4423   8.54  -4.20  -7.23
  2665.88730  -5.457  14.7929  19.4423   8.71  -4.20  -7.23
  2665.89800  -3.293  14.7929  19.4423   8.54  -4.20  -7.23
  2667.53560  -2.934  13.9353  18.5819   9.08  -4.66  -7.38
  2667.54700  -3.925  13.9353  18.5819   9.08  -4.66  -7.38
  2670.15630  -1.435  10.4153  15.0573   9.69  -4.16  -7.26
  2670.72630  -5.614  15.2298  19.8708   9.46  -2.82  -7.13
  2672.15340  -5.578  15.7997  20.4383   8.07  -3.08  -6.99
  2672.15340  -7.122  15.7997  20.4383   8.07  -3.08  -6.99
  2672.83860  -5.427  14.7882  19.4256   8.77  -4.37  -7.23
  2675.01860  -7.412  14.7929  19.4264   8.71  -4.20  -7.23
  2675.02940  -5.109  14.7929  19.4264   8.71  -4.20  -7.23
  2675.51260  -7.593  14.7929  19.4256   8.71  -4.20  -7.23
  2675.52340  -5.938  14.7929  19.4256   8.71  -4.20  -7.23
  2677.90580  -1.287  10.0665  14.6951   8.32  -4.24  -7.24
  2677.91370  -6.146  12.1471  16.7757   9.46  -5.29  -7.53
  2679.35210  -2.747   9.5054  14.1315   9.07  -4.87  -7.33
  2680.40390  -2.957   9.5054  14.1296   9.07  -4.86  -7.33
  2682.21050  -1.032  10.0740  14.6951   8.32  -4.24  -7.24
  2682.21550  -1.986  10.0740  14.6951   8.32  -4.24  -7.24
  2697.32280  -4.520  14.1563  18.7516   8.45  -4.69  -7.42
  2697.32280  -6.063  14.1563  18.7516   8.45  -4.69  -7.42
  2704.45960  -4.649  14.1563  18.7394   8.45  -4.69  -7.42
  2714.89670  -2.414  14.1563  18.7218  14.87  -4.69  -7.42
  2714.89670  -3.958  14.1563  18.7218  14.87  -4.69  -7.42
  2714.89670  -4.114  14.1563  18.7218  14.87  -4.69  -7.42
  2718.95070  -6.736  15.8947  20.4534   7.94  -2.88  -6.93
  2722.24850  -1.719  10.0665  14.6197   8.39  -4.39  -7.22
  2725.55740  -8.151  15.7997  20.3474   8.25  -3.08  -6.99
  2726.70230  -1.418  10.0740  14.6197   8.39  -4.39  -7.22
  2728.00300  -4.947  15.8947  20.4383   8.06  -2.88  -6.93
  2728.00300  -6.491  15.8947  20.4383   8.06  -2.88  -6.93
  2736.61150 -10.936   5.3096   9.8389   9.55  -5.75  -7.79
  2737.84960 -10.879   5.3096   9.8368   9.56  -5.75  -7.79
  2740.38720  -2.556  14.1563  18.6793   9.27  -4.69  -7.42
  2747.66260  -4.858  14.7929  19.3039   8.63  -4.20  -7.23
  2748.11060  -4.707  14.7847  19.2950   8.72  -4.36  -7.23
  2749.48550  -4.584  14.7882  19.2963   8.70  -4.37  -7.23
  2749.86210  -4.804  14.7929  19.3003   8.64  -4.20  -7.23
  2749.87350  -6.770  14.7929  19.3003   8.64  -4.20  -7.23
  2750.27220  -5.343  14.7882  19.2950   8.70  -4.37  -7.23
  2752.31520  -7.903  14.7929  19.2963   8.63  -4.20  -7.23
  2752.32650  -5.603  14.7929  19.2963   8.63  -4.20  -7.23
  2753.11490  -7.944  14.7929  19.2950   8.63  -4.20  -7.23
  2754.10470  -4.193  14.7929  19.2934   8.71  -4.20  -7.23
  2754.11610  -4.939  14.7929  19.2934   8.71  -4.20  -7.23
  2754.16690  -4.492  14.7882  19.2886   8.77  -4.37  -7.23
  2757.00630  -6.317  14.7929  19.2886   8.71  -4.20  -7.23
  2757.01770  -4.243  14.7929  19.2886   8.71  -4.20  -7.23
  2766.10060  -8.358  15.4085  19.8895   9.47  -3.99  -7.01
  2773.90050  -4.672  15.0573  19.5257   8.96  -4.16  -7.26
  2775.64880  -2.157  15.0573  19.5229  12.72  -4.16  -7.26
  2782.96500  -4.770  15.4357  19.8895   9.46  -3.68  -7.02
  2782.96500  -7.462  15.4357  19.8895   9.46  -3.69  -7.02
  2783.68570  -7.522  15.8947  20.3474   8.24  -2.88  -6.93
  2785.18950  -4.956  15.0754  19.5257   8.95  -4.03  -7.25
  2786.95210  -3.041  15.0754  19.5229  12.72  -4.03  -7.25
  2790.83470  -2.103  15.0754  19.5167   8.95  -4.03  -7.25
  2794.71320  -4.441  15.4357  19.8708   9.46  -3.69  -7.02
  2794.71320  -4.944  15.4357  19.8708   9.46  -3.68  -7.02
  2796.30800  -5.009  14.1563  18.5889   9.03  -4.69  -7.42
  2808.05810  -2.130  15.0754  19.4895   8.95  -4.03  -7.25
  2818.30630  -2.049  10.3902  14.7882   9.65  -4.37  -7.23
  2820.57980  -1.723  10.3902  14.7847   9.65  -4.36  -7.23
  2830.53650  -5.402  15.4918  19.8708   9.46  -2.94  -7.02
  2830.54450  -8.199  14.6197  18.9987   8.57  -4.39  -7.22
  2831.46010  -4.882  10.4153  14.7929   9.64  -4.20  -7.23
  2834.47320  -1.372  10.4153  14.7882   9.65  -4.37  -7.23
  2834.47720  -6.094  14.6197  18.9926   8.59  -4.39  -7.22
  2836.77280  -2.057  10.4153  14.7847   9.65  -4.36  -7.23
  2849.30960  -5.079  15.0754  19.4256   9.01  -4.03  -7.25
  2851.45120  -3.661   9.8389  14.1857   9.55  -5.75  -7.79
  2857.23040  -3.898   9.8368  14.1749   9.56  -5.75  -7.79
  2858.58010  -4.610   9.8389  14.1749   9.55  -5.75  -7.79
  2862.26250  -5.323   9.8368  14.1673   9.56  -5.75  -7.79
  2863.61700  -6.185   9.8389  14.1673   9.55  -5.75  -7.79
  2872.24710  -3.709  15.2075  19.5229  12.72  -3.86  -7.11
  2876.36120  -3.805  15.2075  19.5167   8.53  -3.86  -7.11
  2876.37110  -5.116  15.2075  19.5167   8.53  -3.86  -7.11
  2880.13260  -5.814  14.6951  18.9987   8.52  -4.24  -7.24
  2884.20440  -4.927  14.6951  18.9926   8.55  -4.24  -7.24
  2884.21020  -3.976  14.6951  18.9926   8.55  -4.24  -7.24
  2884.70290  -5.688  15.2075  19.5042   8.48  -3.86  -7.11
  2884.71290  -6.134  15.2075  19.5042   8.48  -3.86  -7.11
  2886.13790  -2.393   9.8368  14.1315   9.56  -4.87  -7.33
  2887.35830  -1.661   9.8368  14.1296   9.56  -4.86  -7.33
  2887.51510  -1.423   9.8389  14.1315   9.56  -4.87  -7.33
  2891.77180  -6.961  14.6951  18.9814   8.52  -4.24  -7.24
  2891.77760  -8.195  14.6951  18.9814   8.52  -4.24  -7.24
  2894.65980  -3.804  15.2075  19.4895   8.52  -3.86  -7.11
  2894.66990  -5.491  15.2075  19.4895   8.52  -3.86  -7.11
  2896.29100  -5.733  14.6197  18.8993   8.77  -4.39  -7.22
  2897.42430  -6.297  14.6197  18.8976   8.78  -4.39  -7.22
  2901.88200  -6.393  15.2544  19.5257   9.60  -5.58  -7.69
  2903.79550  -3.730  15.2544  19.5229  12.72  -5.20  -7.69
  2904.28310  -0.381   9.8368  14.1046   9.58  -4.68  -7.38
  2905.67770  -1.528   9.8389  14.1046   9.58  -4.68  -7.38
  2905.69200  -0.226   9.8389  14.1046   9.58  -4.68  -7.38
  2907.29430  -4.952  15.2623  19.5257   8.62  -4.99  -7.10
  2908.01060  -2.971  15.2544  19.5167   9.60  -5.37  -7.69
  2909.21490  -4.451  15.2623  19.5229  12.72  -4.99  -7.10
  2910.76840  -5.174  15.2674  19.5257   8.69  -4.68  -7.10
  2912.69360  -4.409  15.2674  19.5229  12.72  -4.68  -7.10
  2913.92300  -3.146  15.2075  19.4612   8.48  -3.86  -7.11
  2916.26070  -1.420  12.5254  16.7757   9.51  -5.17  -7.57
  2916.37130  -2.379  12.5256  16.7757   9.51  -5.17  -7.57
  2916.78820  -2.424  12.5254  16.7749   9.51  -5.17  -7.57
  2916.89890  -1.228  12.5256  16.7749   9.51  -5.17  -7.57
  2916.93460  -5.331  15.2674  19.5167   8.68  -4.68  -7.10
  2924.91880  -4.393  15.0573  19.2950   8.97  -4.16  -7.26
  2926.71540  -3.160  15.2544  19.4895   9.60  -5.64  -7.68
  2926.90820  -4.572  15.2075  19.4423   8.48  -3.86  -7.11
  2926.90820  -5.132  15.2075  19.4423   8.67  -3.86  -7.11
  2926.91850  -3.334  15.2075  19.4423   8.48  -3.86  -7.11
  2935.75480  -4.505  15.2674  19.4895   8.68  -4.68  -7.10
  2936.57580  -4.195  15.0754  19.2963   8.97  -4.03  -7.25
  2937.47320  -4.917  15.0754  19.2950   8.97  -4.03  -7.25
  2937.91870  -7.572  15.2075  19.4264   8.67  -3.86  -7.11
  2937.92900  -4.932  15.2075  19.4264   8.67  -3.86  -7.11
  2938.51460  -8.803  15.2075  19.4256   8.67  -3.86  -7.11
  2938.52490  -6.220  15.2075  19.4256   8.67  -3.86  -7.11
  2939.22990  -4.962  14.6951  18.9122   8.75  -4.24  -7.24
  2941.91660  -4.187  15.0754  19.2886   9.01  -4.03  -7.25
  2945.69360  -5.969  14.6951  18.9029   8.74  -4.24  -7.24
  2945.69970  -6.306  14.6951  18.9029   8.74  -4.24  -7.24
  2948.23040  -7.437  14.6951  18.8993   8.75  -4.24  -7.24
  2948.23650  -5.726  14.6951  18.8993   8.75  -4.24  -7.24
  2949.40470  -6.305  14.6951  18.8976   8.75  -4.24  -7.24
  2951.55650  -5.160  15.6713  19.8708   9.46  -2.85  -6.96
  2954.12690 -10.315   5.3096   9.5054   9.05  -6.49  -7.85
  2963.61430  -9.628   5.3230   9.5054   9.05  -6.49  -7.85
  2963.61430 -11.714   5.3230   9.5054   9.05  -6.49  -7.85
  2971.55430  -6.008  15.2544  19.4256   9.61  -5.64  -7.71
  2979.09560 -10.728   5.3448   9.5054   9.05  -6.49  -7.85
  2980.87320  -6.378  15.2674  19.4256   8.78  -4.68  -7.10
  2982.83530  -7.622  14.8260  18.9814   8.46  -3.54  -7.25
  3007.18790  -3.457  12.8394  16.9612  14.18  -5.54  -7.58
  3007.19960  -3.580  12.8395  16.9612  14.18  -5.54  -7.58
  3007.19960  -4.800  12.8395  16.9612  14.18  -5.54  -7.58
  3013.31010  -4.783  10.3902  14.5036   9.75  -5.92  -7.76
  3013.54900  -6.251  10.4153  14.5284   9.76  -5.94  -7.76
  3014.55770  -8.555  14.6197  18.7314   8.50  -4.39  -7.22
  3014.93960  -2.054  15.4145  19.5257   9.61  -5.58  -7.69
  3016.03110  -2.019  15.4160  19.5257   9.65  -5.58  -7.69
  3016.24040  -2.965  15.4135  19.5229  12.72  -5.20  -7.69
  3017.00510  -3.135  15.4145  19.5229  12.72  -5.20  -7.69
  3018.09810  -1.699  15.4160  19.5229  12.72  -5.20  -7.69
  3019.90610  -3.527  16.3490  20.4534   8.26  -4.86  -7.39
  3020.78850  -2.875  15.4135  19.5167   9.56  -5.37  -7.69
  3021.55550  -0.769  15.4145  19.5167   9.61  -5.37  -7.69
  3023.88340  -5.103  10.3902  14.4892   9.75  -5.93  -7.76
  3025.77620  -4.223  15.2075  19.3039   8.58  -3.86  -7.11
  3028.44360  -4.668  15.2075  19.3003   8.59  -3.86  -7.11
  3028.45460  -5.310  15.2075  19.3003   8.59  -3.86  -7.11
  3029.99030  -0.078  15.4135  19.5042   9.55  -5.67  -7.63
  3031.41910  -8.134  15.2075  19.2963   8.58  -3.86  -7.11
  3031.43010  -5.397  15.2075  19.2963   8.58  -3.86  -7.11
  3031.45590  -2.843  16.3646  20.4534   8.26  -4.86  -7.39
  3031.79880  -4.170  10.4153  14.5036   9.75  -5.92  -7.76
  3032.38650  -7.442  15.2075  19.2950   8.58  -3.86  -7.11
  3032.94120  -1.575  15.4299  19.5167   9.65  -5.37  -7.69
  3033.34890  -5.569  14.8260  18.9122   8.71  -3.54  -7.25
  3033.34890  -7.114  14.8260  18.9122   8.71  -3.54  -7.25
  3033.59010  -4.275  15.2075  19.2934   8.66  -3.86  -7.11
  3033.60110  -4.915  15.2075  19.2934   8.66  -3.86  -7.11
  3035.00750  -2.364  12.8772  16.9612  14.18  -5.39  -7.48
  3037.11080  -6.743  15.2075  19.2886   8.67  -3.86  -7.11
  3037.12180  -4.303  15.2075  19.2886   8.67  -3.86  -7.11
  3037.26760  -2.095  12.8803  16.9612  14.18  -5.40  -7.48
  3037.26760  -2.959  12.8803  16.9612  14.18  -5.40  -7.48
  3039.21140  -1.851  15.4445  19.5229  12.72  -5.20  -7.69
  3040.24010  -6.475  14.8260  18.9029   8.70  -3.54  -7.25
  3040.97720  -4.129  15.4135  19.4895   9.56  -5.64  -7.68
  3041.56940  -0.823  15.4505  19.5257   9.40  -5.58  -7.69
  3041.75450  -0.722  15.4145  19.4895   9.61  -5.64  -7.68
  3042.21730  -0.419  15.4299  19.5042   9.65  -5.67  -7.63
  3042.50250  -5.063  10.4153  14.4892   9.75  -5.93  -7.76
  3042.71270  -4.299  16.3646  20.4383   8.32  -4.86  -7.39
  3043.67150  -1.096  15.4505  19.5229  12.72  -5.20  -7.69
  3043.72710  -0.262  15.4534  19.5257   9.35  -5.58  -7.69
  3043.82910  -0.513  15.4445  19.5167   9.47  -5.37  -7.69
  3044.64670  -4.825  15.7997  19.8708   9.46  -3.08  -6.99
  3045.83230  -1.353  15.4534  19.5229  12.72  -5.20  -7.69
  3046.07910  -3.228  13.7853  17.8544  11.81  -4.81  -7.36
  3047.55840  -1.573  16.3862  20.4534   8.26  -4.86  -7.39
  3048.06670  -2.944  13.7853  17.8518  11.81  -4.81  -7.36
  3048.30280  -0.470  15.4505  19.5167   9.40  -5.37  -7.69
  3053.17200   0.027  15.4445  19.5042   9.46  -5.67  -7.63
  3053.29320  -1.412  15.4299  19.4895   9.65  -5.64  -7.68
  3055.62920  -4.052  14.6951  18.7516   8.47  -4.24  -7.24
  3058.93540  -0.812  16.3862  20.4383   8.32  -4.86  -7.39
  3062.93270  -3.479  15.4761  19.5229  12.72  -3.57  -7.01
  3064.32790  -0.349  15.4445  19.4895   9.47  -5.64  -7.68
  3064.78450  -4.243  14.6951  18.7394   8.47  -4.24  -7.24
  3064.79110  -6.026  14.6951  18.7394   8.47  -4.24  -7.24
  3066.59340  -5.384  15.2544  19.2963   9.61  -5.48  -7.73
  3067.57200  -6.156  15.2544  19.2950   9.61  -5.48  -7.73
  3067.61720  -3.483  15.4761  19.5167   8.50  -3.57  -7.01
  3067.62280  -6.789  15.4761  19.5167   8.50  -3.57  -7.01
  3068.86210  -0.300  15.4505  19.4895   9.40  -5.64  -7.68
  3070.86640  -5.924  14.6951  18.7314   8.44  -4.24  -7.24
  3070.87300  -6.933  14.6951  18.7314   8.44  -4.24  -7.24
  3072.41800  -5.468  15.2544  19.2886   9.61  -6.08  -7.73
  3073.40980  -5.004  14.6197  18.6527   8.70  -4.39  -7.22
  3073.62050  -6.247  15.2623  19.2950   8.66  -4.99  -7.10
  3074.73320  -2.635  15.4299  19.4612   9.65  -5.24  -7.71
  3076.51880  -5.256  15.2674  19.2963   8.72  -4.68  -7.10
  3076.58790  -3.218  15.4135  19.4423   9.55  -5.27  -7.71
  3077.10690  -4.161  15.4761  19.5042   8.44  -3.57  -7.01
  3077.11260  -5.177  15.4761  19.5042   8.44  -3.57  -7.01
  3077.50380  -5.851  15.2674  19.2950   8.72  -4.68  -7.10
  3078.19460  -3.909  14.6951  18.7218  14.87  -4.24  -7.24
  3078.20130  -2.144  14.6951  18.7218  14.87  -4.24  -7.24
  3078.20130  -5.133  14.6951  18.7218  14.87  -4.24  -7.24
  3079.92450  -6.186  15.5013  19.5257   8.48  -4.09  -6.99
  3080.75970  -6.395  15.5024  19.5257   8.49  -4.11  -6.99
  3082.08000  -2.053  15.5013  19.5229  12.72  -4.09  -6.99
  3082.38130  -5.963  15.2674  19.2886   8.78  -4.68  -7.10
  3082.91640  -2.643  15.5024  19.5229  12.72  -4.11  -6.99
  3084.85720  -5.673  14.6197  18.6377   8.70  -4.39  -7.22
  3087.66800  -1.928  15.5024  19.5167   8.48  -4.11  -6.99
  3088.43880  -3.830  15.4761  19.4895   8.49  -3.57  -7.01
  3088.44450  -4.397  15.4761  19.4895   8.49  -3.57  -7.01
  3088.75560  -1.411  15.4135  19.4264   9.57  -5.68  -7.71
  3089.19460  -1.317  15.4299  19.4423   9.66  -5.66  -7.71
  3089.19460  -3.790  15.4299  19.4423   9.65  -5.27  -7.71
  3089.41420  -2.525  15.4135  19.4256   9.57  -5.64  -7.71
  3090.21640  -1.696  15.4145  19.4256   9.63  -5.64  -7.71
  3096.06410  -2.718  16.4499  20.4534   8.27  -4.86  -7.39
  3099.97460  -2.619  16.3490  20.3474   8.43  -4.92  -7.36
  3100.49090  -3.352  15.4445  19.4423   9.46  -5.27  -7.71
  3101.46240  -2.684  15.4299  19.4264   9.66  -5.67  -7.71
  3102.12650  -4.442  15.4299  19.4256   9.66  -5.64  -7.71
  3108.76360  -2.051  15.5024  19.4895   8.47  -4.11  -6.99
  3110.37700  -3.172  15.4761  19.4612   8.44  -3.57  -7.01
  3111.00420  -2.348  14.6951  18.6793   9.27  -4.24  -7.24
  3111.01100  -3.628  14.6951  18.6793   9.27  -4.24  -7.24
  3112.14610  -1.380  16.3646  20.3474   8.43  -4.92  -7.36
  3112.84870  -2.488  15.4445  19.4264   9.49  -5.68  -7.71
  3113.06680  -5.255   9.5054  13.4870   9.05  -6.49  -7.85
  3113.51760  -3.455  15.4445  19.4256   9.49  -5.64  -7.71
  3117.36240  -4.202  15.8947  19.8708   9.46  -2.88  -6.93
  3118.19870  -3.354  15.4505  19.4256   9.42  -5.64  -7.71
  3125.17640  -4.373  15.4761  19.4423   8.65  -3.57  -7.01
  3125.17640  -4.675  15.4761  19.4423   8.44  -3.57  -7.01
  3125.18230  -3.400  15.4761  19.4423   8.44  -3.57  -7.01
  3128.35680  -6.041  14.6197  18.5819   9.05  -4.39  -7.22
  3129.11960  -0.667  16.3862  20.3474   8.43  -4.92  -7.36
  3131.95970  -8.287  14.6951  18.6527   8.67  -4.24  -7.24
  3131.96660  -7.606  14.6951  18.6527   8.67  -4.24  -7.24
  3137.73210  -5.991  15.4761  19.4264   8.64  -3.57  -7.01
  3137.73810  -4.640  15.4761  19.4264   8.64  -3.57  -7.01
  3138.41180  -8.185  15.4761  19.4256   8.64  -3.57  -7.01
  3138.41780  -6.609  15.4761  19.4256   8.64  -3.57  -7.01
  3143.84820  -8.848  14.6951  18.6377   8.67  -4.24  -7.24
  3149.16950  -0.296  16.3862  20.3222   8.22  -4.98  -7.39
  3157.47890  -4.149  14.8260  18.7516   8.39  -3.54  -7.25
  3157.47890  -5.692  14.8260  18.7516   8.39  -3.54  -7.25
  3159.40190  -5.240  15.5024  19.4256   8.63  -4.11  -6.99
  3162.69640  -6.045  13.9353  17.8544  11.81  -4.66  -7.38
  3164.83910  -9.646  13.9353  17.8518  11.81  -4.66  -7.38
  3164.85520  -5.461  13.9353  17.8518  11.81  -4.66  -7.38
  3167.26270  -4.279  14.8260  18.7394   8.39  -3.54  -7.25
  3180.27790  -6.168  16.4499  20.3474   8.44  -4.92  -7.36
  3181.58670  -2.055  14.8260  18.7218  14.87  -3.54  -7.25
  3181.58670  -3.599  14.8260  18.7218  14.87  -3.54  -7.25
  3181.58670  -3.755  14.8260  18.7218  14.87  -3.54  -7.25
  3181.87530  -8.068  15.1032  18.9987   8.51  -4.00  -7.11
  3183.27150  -4.267  14.6951  18.5889   9.03  -4.24  -7.24
  3183.27860  -2.747  14.6951  18.5889   9.03  -4.24  -7.24
  3186.84560  -6.134  15.1032  18.9926   8.53  -4.00  -7.11
  3188.96010  -8.759  12.8395  16.7263   8.64  -5.54  -7.58
  3188.97230   0.259  15.4135  19.3003   9.56  -5.50  -7.73
  3189.03950  -2.958  14.6951  18.5819   9.03  -4.24  -7.24
  3189.04660  -3.927  14.6951  18.5819   9.03  -4.24  -7.24
  3192.27170  -0.414  15.4135  19.2963   9.56  -5.48  -7.73
  3193.12820   0.214  15.4145  19.2963   9.62  -5.48  -7.73
  3193.33220  -1.701  15.4135  19.2950   9.56  -5.48  -7.73
  3194.18930  -0.411  15.4145  19.2950   9.62  -5.48  -7.73
  3194.67930  -0.675  15.4135  19.2934   9.57  -5.97  -7.73
  3195.41450   0.055  15.4160  19.2950   9.65  -5.48  -7.73
  3198.58400  -2.449  15.4135  19.2886   9.57  -6.08  -7.73
  3199.34150  -7.053  15.6515  19.5257   8.72  -3.71  -7.11
  3199.44390  -1.748  15.4145  19.2886   9.63  -6.08  -7.73
  3199.53610   0.604  15.4299  19.3039   9.66  -5.48  -7.73
  3201.66750  -1.020  15.6515  19.5229  12.72  -3.71  -7.11
  3202.51880  -0.430  15.4299  19.3003   9.66  -5.50  -7.73
  3203.70940  -6.663  15.6568  19.5257   8.66  -3.69  -7.05
  3203.87160  -0.690  10.0665  13.9353   8.53  -4.66  -7.38
  3205.84630  -1.756  15.4299  19.2963   9.66  -5.48  -7.73
  3206.04170  -0.431  15.6568  19.5229  12.72  -3.69  -7.05
  3206.79240  -0.251  15.6515  19.5167   8.72  -3.71  -7.11
  3208.27440  -1.665  15.4299  19.2934   9.66  -5.67  -7.73
  3208.69870  -3.233  15.6600  19.5229  12.72  -3.31  -6.93
  3210.02580  -0.436  10.0740  13.9353   8.53  -4.66  -7.38
  3210.04230  -1.390  10.0740  13.9353   8.53  -4.66  -7.38
  3212.21250  -4.288  15.4299  19.2886   9.66  -5.67  -7.73
  3213.84620  -3.302  15.6600  19.5167   8.47  -3.31  -6.93
  3213.84620  -4.769  15.6600  19.5167   8.47  -3.31  -6.93
  3214.66060  -0.116  15.4445  19.3003   9.48  -5.50  -7.73
  3216.64970  -2.197  14.8260  18.6793   9.26  -3.54  -7.25
  3217.62810  -5.932  15.1465  18.9987   8.46  -4.04  -7.12
  3218.01340  -0.812  15.4445  19.2963   9.48  -5.48  -7.73
  3219.09110  -2.103  15.4445  19.2950   9.48  -5.48  -7.73
  3220.24830  -5.147  12.8772  16.7263   8.15  -5.39  -7.48
  3220.46000  -1.379  15.4445  19.2934   9.49  -5.97  -7.73
  3222.71080  -5.054  15.1465  18.9926   8.49  -4.04  -7.12
  3222.71700  -4.093  15.1465  18.9926   8.49  -4.06  -7.12
  3222.79290  -4.533  12.8803  16.7263   8.15  -5.40  -7.48
  3223.01420  -0.673  15.4505  19.2963   9.41  -5.48  -7.73
  3224.09520  -1.303  15.4505  19.2950   9.41  -5.48  -7.73
  3224.26370  -5.530  15.6600  19.5042   8.41  -3.31  -6.93
  3224.26370  -6.642  15.6600  19.5042   8.41  -3.31  -6.93
  3224.42800  -3.400  15.4445  19.2886   9.49  -6.08  -7.73
  3226.51980  -1.484  15.4534  19.2950   9.36  -5.48  -7.73
  3229.25050  -7.353  15.6874  19.5257   8.66  -4.47  -6.96
  3229.44870  -3.178  15.4505  19.2886   9.42  -6.08  -7.73
  3229.55310  -0.407  15.6515  19.4895   8.71  -3.71  -7.11
  3231.29640  -7.130  15.6898  19.5257   8.71  -4.21  -6.99
  3231.62020  -1.385  15.6874  19.5229  12.72  -4.47  -6.96
  3232.16140  -6.692  15.1465  18.9814   8.46  -4.04  -7.12
  3232.16770  -8.326  15.1465  18.9814   8.46  -4.06  -7.12
  3233.66910  -0.532  15.6898  19.5229  12.72  -4.21  -6.99
  3235.89340  -0.972  12.5256  16.3560   9.40  -5.17  -7.57
  3236.68440  -2.268  16.6239  20.4534   8.29  -4.86  -7.39
  3236.70740  -3.412  15.6600  19.4895   8.46  -3.31  -6.93
  3236.70740  -4.667  15.6600  19.4895   8.46  -3.31  -6.93
  3236.84160  -0.604  15.6874  19.5167   8.66  -4.47  -6.96
  3238.15010  -3.244  15.4761  19.3039   8.55  -3.57  -7.01
  3241.20520  -4.548  15.4761  19.3003   8.56  -3.57  -7.01
  3241.21150  -4.086  15.4761  19.3003   8.56  -3.57  -7.01
  3244.61370  -5.306  15.4761  19.2963   8.55  -3.57  -7.01
  3244.62000  -4.958  15.4761  19.2963   8.55  -3.57  -7.01
  3245.71560  -5.614  15.4761  19.2950   8.55  -3.57  -7.01
  3247.10090  -4.096  15.4761  19.2934   8.64  -3.57  -7.01
  3247.10720  -7.165  15.4761  19.2934   8.64  -3.57  -7.01
  3250.85470  -1.100  16.6405  20.4534   8.30  -4.86  -7.39
  3251.13490  -7.639  15.4761  19.2886   8.65  -3.57  -7.01
  3251.14120  -4.329  15.4761  19.2886   8.64  -3.57  -7.01
  3260.03230  -0.762  15.6874  19.4895   8.65  -4.47  -6.96
  3260.81070  -3.248  15.6600  19.4612   8.41  -3.31  -6.93
  3260.89360  -7.319  12.8394  16.6405   8.66  -5.54  -7.58
  3260.90740  -8.568  12.8395  16.6405   8.66  -5.54  -7.58
  3261.27130  -1.133  12.5254  16.3260   9.39  -5.17  -7.57
  3261.40960  -2.306  12.5256  16.3260   9.39  -5.17  -7.57
  3263.80330  -0.736  16.6405  20.4383   8.35  -4.86  -7.39
  3265.19440  -5.755  15.1032  18.8993   8.74  -4.00  -7.11
  3265.84730  -4.381  16.3394  20.1347  13.14  -6.41  -7.65
  3266.63480  -6.273  15.1032  18.8976   8.74  -4.00  -7.11
  3267.05330  -6.033  15.5024  19.2963   8.54  -4.11  -6.99
  3267.22420  -8.988  15.5013  19.2950   8.53  -4.09  -6.99
  3268.16410  -7.969  15.5024  19.2950   8.53  -4.11  -6.99
  3273.66510  -4.243  15.5024  19.2886   8.63  -4.11  -6.99
  3274.08650  -3.791  16.3490  20.1347  13.14  -6.41  -7.65
  3275.29110  -8.037  12.8395  16.6239   8.66  -5.54  -7.58
  3277.07990  -3.474  15.6600  19.4423   8.42  -3.31  -6.93
  3277.07990  -4.724  15.6600  19.4423   8.42  -3.31  -6.93
  3277.07990  -4.734  15.6600  19.4423   8.63  -3.31  -6.93
  3278.70070  -3.876  16.3394  20.1199  13.14  -6.17  -7.65
  3281.65080  -5.856  10.3902  14.1673   9.63  -6.46  -7.81
  3284.23730  -3.467  15.6515  19.4256   8.81  -3.71  -7.11
  3287.00500  -4.724  16.3490  20.1199  13.14  -6.17  -7.65
  3287.66660  -5.356  16.3646  20.1347  13.14  -6.42  -7.65
  3290.88850  -4.807  15.6600  19.4264   8.63  -3.31  -6.93
  3290.88850  -6.469  15.6600  19.4264   8.63  -3.31  -6.93
  3291.56250  -4.608  15.1465  18.9122   8.71  -4.06  -7.12
  3291.63620  -6.637  15.6600  19.4256   8.63  -3.31  -6.93
  3291.63620  -8.712  15.6600  19.4256   8.63  -3.31  -6.93
  3293.96920  -4.636  14.8260  18.5889   9.01  -3.54  -7.25
  3296.29240  -5.509  12.8803  16.6405   8.22  -5.40  -7.48
  3296.88920  -6.074  10.4153  14.1749   9.63  -6.55  -7.81
  3299.67180  -5.580  15.1465  18.9029   8.70  -4.04  -7.12
  3299.67830  -6.229  15.1465  18.9029   8.70  -4.06  -7.12
  3302.85510  -8.598  15.1465  18.8993   8.71  -4.04  -7.12
  3302.86170  -6.198  15.1465  18.8993   8.71  -4.06  -7.12
  3303.59080  -6.571  10.4153  14.1673   9.63  -6.46  -7.81
  3303.90850  -7.376  15.2298  18.9814   8.43  -2.82  -7.13
  3304.32900  -6.820  15.1465  18.8976   8.71  -4.04  -7.12
  3308.30500  -5.480  12.8772  16.6239   8.22  -5.39  -7.48
  3310.99060  -4.557  12.8803  16.6239   8.22  -5.40  -7.48
  3313.07330  -2.872  10.3902  14.1315   9.63  -4.87  -7.33
  3314.68160  -2.578  10.3902  14.1296   9.63  -4.86  -7.33
  3315.11800  -5.019  12.8772  16.6162   8.22  -5.39  -7.48
  3315.76230  -3.780  15.6874  19.4256   8.76  -4.47  -6.96
  3317.81470  -5.648  12.8803  16.6162   8.22  -5.40  -7.48
  3321.56830  -2.598  15.7912  19.5229  12.72  -3.09  -6.86
  3325.65460  -0.746  16.7263  20.4534   8.24  -4.86  -7.39
  3327.08460  -2.680  15.7912  19.5167   8.51  -3.09  -6.86
  3327.08460  -4.036  15.7912  19.5167   8.51  -3.09  -6.86
  3328.83510  -1.316  16.6239  20.3474   8.45  -4.92  -7.36
  3333.13930  -1.480  10.0665  13.7853   8.53  -4.81  -7.36
  3335.43690  -2.184  10.4153  14.1315   9.63  -4.87  -7.33
  3337.06690  -2.947  10.4153  14.1296   9.63  -4.86  -7.33
  3338.25040  -5.943  15.7912  19.5042   8.45  -3.09  -6.86
  3338.25040  -6.730  15.7912  19.5042   8.45  -3.09  -6.86
  3339.81840  -1.180  10.0740  13.7853   8.53  -4.81  -7.36
  3343.82560  -0.896  16.6405  20.3474   8.46  -4.92  -7.36
  3351.59130  -2.764  15.7912  19.4895   8.50  -3.09  -6.86
  3351.59130  -4.063  15.7912  19.4895   8.50  -3.09  -6.86
  3354.30150  -2.350  16.4395  20.1347  13.14  -5.98  -7.65
  3359.69450  -4.295  10.4153  14.1046   9.65  -4.68  -7.38
  3363.79370  -1.435  16.4499  20.1347  13.14  -5.98  -7.65
  3365.99440  -5.318  15.2298  18.9122   8.70  -2.82  -7.13
  3365.99440  -6.862  15.2298  18.9122   8.70  -2.82  -7.13
  3367.86200  -1.849  16.4395  20.1199  13.14  -5.98  -7.65
  3374.48190  -6.222  15.2298  18.9029   8.69  -2.82  -7.13
  3377.43120  -2.136  16.4499  20.1199  13.14  -5.98  -7.65
  3377.44260  -3.307  15.7912  19.4612   8.45  -3.09  -6.86
  3390.91520  -4.119   9.8368  13.4922   9.56  -5.75  -7.79
  3392.81640  -3.291   9.8389  13.4922   9.55  -5.75  -7.79
  3394.89960  -3.554  15.7912  19.4423   8.46  -3.09  -6.86
  3394.89960  -4.750  15.7912  19.4423   8.65  -3.09  -6.86
  3394.89960  -4.800  15.7912  19.4423   8.46  -3.09  -6.86
  3395.74140  -3.436   9.8368  13.4870   9.56  -5.75  -7.79
  3397.64800  -4.832   9.8389  13.4870   9.55  -5.75  -7.79
  3400.72010  -3.130  15.6515  19.2963   8.75  -3.71  -7.11
  3401.52090  -5.228  15.6600  19.3039   8.53  -3.31  -6.93
  3401.92370  -4.044  15.6515  19.2950   8.75  -3.71  -7.11
  3404.89230  -5.775  15.6600  19.3003   8.54  -3.31  -6.93
  3404.89230  -6.089  15.6600  19.3003   8.54  -3.31  -6.93
  3406.86260  -3.439  15.6568  19.2950   8.69  -3.69  -7.05
  3407.88460  -2.545  15.6515  19.2886   8.81  -3.71  -7.11
  3408.65380  -5.890  15.6600  19.2963   8.53  -3.31  -6.93
  3408.65380  -8.157  15.6600  19.2963   8.53  -3.31  -6.93
  3409.72110  -4.832  15.7912  19.4264   8.65  -3.09  -6.86
  3409.72110  -6.475  15.7912  19.4264   8.65  -3.09  -6.86
  3409.86300  -5.941  15.6600  19.2950   8.53  -3.31  -6.93
  3410.15730  -3.313  15.8882  19.5229  12.72  -2.81  -6.89
  3410.52380  -6.678  15.7912  19.4256   8.65  -3.09  -6.86
  3410.52380  -7.274  15.7912  19.4256   8.65  -3.09  -6.86
  3411.39900  -4.350  15.6600  19.2934   8.62  -3.31  -6.93
  3411.39900  -5.643  15.6600  19.2934   8.62  -3.31  -6.93
  3415.85180  -4.440  15.6600  19.2886   8.63  -3.31  -6.93
  3415.85180  -6.484  15.6600  19.2886   8.63  -3.31  -6.93
  3415.97200  -3.413  15.8882  19.5167   8.55  -2.81  -6.89
  3415.97200  -4.620  15.8882  19.5167   8.55  -2.81  -6.89
  3416.29070  -8.605  15.1032  18.7314   8.42  -4.00  -7.11
  3423.01690  -1.323  16.7263  20.3474   8.42  -4.92  -7.36
  3427.74340  -6.206  15.8882  19.5042   8.50  -2.81  -6.89
  3427.74340  -6.771  15.8882  19.5042   8.50  -2.81  -6.89
  3433.07700  -6.249  12.8395  16.4499   8.65  -5.54  -7.58
  3434.53250  -3.427  15.6874  19.2963   8.69  -4.47  -6.96
  3435.76010  -4.317  15.6874  19.2950   8.69  -4.47  -6.96
  3438.07600  -3.472  15.6898  19.2950   8.74  -4.21  -6.99
  3438.23450  -3.537  15.1465  18.7516   8.39  -4.06  -7.12
  3441.81060  -3.475  15.8882  19.4895   8.54  -2.81  -6.89
  3441.81060  -4.767  15.8882  19.4895   8.54  -2.81  -6.89
  3441.84020  -2.895  15.6874  19.2886   8.76  -4.47  -6.96
  3449.83140  -3.724  15.1465  18.7394   8.39  -4.04  -7.12
  3449.83860  -5.118  15.1465  18.7394   8.39  -4.06  -7.12
  3452.45490  -8.021  15.4085  18.9987   8.47  -3.99  -7.01
  3457.53930  -6.057  15.1465  18.7314   8.37  -4.04  -7.12
  3457.54650  -7.033  15.1465  18.7314   8.37  -4.06  -7.12
  3458.30720  -6.198  15.4085  18.9926   8.50  -3.99  -7.01
  3466.83200  -3.315  15.1465  18.7218  14.87  -4.04  -7.12
  3466.83920  -1.562  15.1465  18.7218  14.87  -4.06  -7.12
  3466.83920  -4.502  15.1465  18.7218  14.87  -4.06  -7.12
  3469.07800  -3.335  15.8882  19.4612   8.49  -2.81  -6.89
  3469.36580  -2.194  12.8772  16.4499   8.19  -5.39  -7.48
  3472.31940  -1.515  12.8803  16.4499   8.19  -5.40  -7.48
  3478.76580  -6.040  15.4357  18.9987   8.43  -3.68  -7.02
  3479.52130  -1.900  12.8772  16.4395   8.19  -5.39  -7.48
  3482.49220  -2.223  12.8803  16.4395   8.19  -5.40  -7.48
  3483.94140 -10.102   6.8576  10.4153   9.63  -6.55  -7.81
  3484.70770  -4.201  15.4357  18.9926   8.46  -3.69  -7.02
  3484.70770  -5.174  15.4357  18.9926   8.46  -3.68  -7.02
  3485.86440 -10.345   6.8595  10.4153   9.63  -6.55  -7.81
  3487.49760  -3.619  15.8882  19.4423   8.50  -2.81  -6.89
  3487.49760  -4.662  15.8882  19.4423   8.68  -2.81  -6.89
  3487.49760  -4.867  15.8882  19.4423   8.50  -2.81  -6.89
  3491.46230  -2.677  16.3394  19.8895   9.48  -5.59  -7.52
  3492.06970  -5.067  15.1032  18.6527   8.66  -4.00  -7.11
  3494.73830  -7.884  12.8394  16.3862   8.65  -5.54  -7.58
  3494.75420  -9.299  12.8395  16.3862   8.65  -5.54  -7.58
  3495.76000  -6.551  15.4357  18.9814   8.43  -3.68  -7.02
  3495.76000  -7.453  15.4357  18.9814   8.43  -3.69  -7.02
  3498.76850  -2.923  12.1471  15.6898   8.82  -4.21  -6.99
  3500.88080  -3.885  16.3490  19.8895   9.48  -5.59  -7.52
  3501.17020  -2.742  12.1471  15.6874   8.78  -4.47  -6.96
  3503.14060  -4.781  15.8882  19.4264   8.68  -2.81  -6.89
  3503.14060  -6.374  15.8882  19.4264   8.68  -2.81  -6.89
  3503.98780  -7.063  15.8882  19.4256   8.68  -2.81  -6.89
  3503.98780  -7.285  15.8882  19.4256   8.68  -2.81  -6.89
  3506.85550  -5.736  15.1032  18.6377   8.66  -4.00  -7.11
  3508.50470  -1.757  15.1465  18.6793   9.26  -4.04  -7.12
  3508.51210  -2.964  15.1465  18.6793   9.26  -4.06  -7.12
  3508.67960 -10.609   6.8576  10.3902   9.63  -6.55  -7.81
  3516.15570  -5.892  12.8394  16.3646   8.64  -5.54  -7.58
  3516.17180  -7.029  12.8395  16.3646   8.65  -5.54  -7.58
  3516.41180  -5.655  16.3646  19.8895   9.48  -5.59  -7.52
  3519.49190  -2.728  16.3490  19.8708   9.47  -5.51  -7.52
  3519.52910  -3.913  15.2298  18.7516   8.36  -2.82  -7.13
  3519.52910  -5.457  15.2298  18.7516   8.36  -2.82  -7.13
  3522.71270  -5.450  16.6162  20.1347  13.14  -6.35  -7.65
  3528.63140  -7.354  15.7912  19.3039   8.56  -3.09  -6.86
  3530.43830  -3.994  16.6239  20.1347  13.14  -6.35  -7.65
  3531.68930  -4.044  15.2298  18.7394   8.36  -2.82  -7.13
  3531.69680  -2.912  12.1471  15.6568   8.79  -3.69  -7.05
  3531.83900  -6.173  12.8395  16.3490   8.65  -5.54  -7.58
  3532.25960  -5.779  15.7912  19.3003   8.57  -3.09  -6.86
  3532.25960  -6.933  15.7912  19.3003   8.57  -3.09  -6.86
  3535.18000  -6.882  15.1465  18.6527   8.63  -4.04  -7.12
  3535.18750  -6.223  15.1465  18.6527   8.63  -4.06  -7.12
  3535.18880  -4.638  16.3646  19.8708   9.47  -5.51  -7.52
  3536.30800  -5.340  15.7912  19.2963   8.56  -3.09  -6.86
  3536.30800  -6.479  15.7912  19.2963   8.56  -3.09  -6.86
  3537.01990  -2.509  12.1471  15.6515   8.83  -3.71  -7.11
  3537.60940  -5.374  15.7912  19.2950   8.56  -3.09  -6.86
  3537.67200  -4.549  16.6162  20.1199  13.14  -6.17  -7.65
  3539.26270  -4.464  15.7912  19.2934   8.65  -3.09  -6.86
  3539.26270  -5.770  15.7912  19.2934   8.65  -3.09  -6.86
  3544.05570  -4.476  15.7912  19.2886   8.65  -3.09  -6.86
  3544.05570  -5.125  15.7912  19.2886   8.65  -3.09  -6.86
  3545.46350  -4.787  16.6239  20.1199  13.14  -6.17  -7.65
  3547.30410  -5.950  16.6405  20.1347  13.14  -6.35  -7.65
  3549.50820  -1.824  15.2298  18.7218  14.87  -2.82  -7.13
  3549.50820  -3.368  15.2298  18.7218  14.87  -2.82  -7.13
  3549.50820  -3.523  15.2298  18.7218  14.87  -2.82  -7.13
  3550.33390  -6.769  15.1465  18.6377   8.62  -4.04  -7.12
  3550.76520  -5.778  15.4085  18.8993   8.72  -3.99  -7.01
  3551.98890  -7.161  15.4918  18.9814   8.42  -2.94  -7.02
  3552.46860  -6.266  15.4085  18.8976   8.72  -3.99  -7.01
  3557.10640  -6.734  16.3862  19.8708   9.47  -5.51  -7.52
  3557.34820  -5.938  12.8803  16.3646   8.17  -5.40  -7.48
  3563.17820  -6.217  15.1032  18.5819   9.03  -4.00  -7.11
  3565.34100  -4.422  15.4357  18.9122   8.70  -3.69  -7.02
  3567.69500  -0.937  13.4870  16.9612  14.18  -5.99  -7.65
  3567.69500  -1.910  13.4870  16.9612  14.18  -5.97  -7.65
  3570.25730  -4.434  12.8772  16.3490   8.17  -5.39  -7.48
  3573.03790  -0.764  13.4922  16.9612  14.18  -5.97  -7.65
  3573.03790  -2.003  13.4922  16.9612  14.18  -5.99  -7.65
  3573.38530  -3.648  12.8803  16.3490   8.17  -5.40  -7.48
  3574.86500  -5.379  15.4357  18.9029   8.69  -3.68  -7.02
  3574.86500  -6.202  15.4357  18.9029   8.69  -3.69  -7.02
  3578.60170  -6.782  15.4357  18.8993   8.69  -3.69  -7.02
  3578.60170  -9.032  15.4357  18.8993   8.69  -3.68  -7.02
  3580.10630  -3.711  12.8772  16.3394   8.17  -5.39  -7.48
  3580.33200  -7.508  15.4357  18.8976   8.70  -3.68  -7.02
  3583.25150  -4.036  12.8803  16.3394   8.17  -5.40  -7.48
  3592.74890  -0.670  16.4395  19.8895   9.48  -5.59  -7.52
  3593.20470  -1.966  15.2298  18.6793   9.26  -2.82  -7.13
  3600.69170  -5.032  15.1465  18.5889   9.01  -4.04  -7.12
  3600.69950  -2.770  15.1465  18.5889   9.01  -4.06  -7.12
  3603.64070  -1.333  16.4499  19.8895   9.48  -5.59  -7.52
  3608.07320  -3.004  15.1465  18.5819   9.02  -4.04  -7.12
  3608.08100  -3.958  15.1465  18.5819   9.02  -4.06  -7.12
  3623.36340  -0.400  16.4499  19.8708   9.47  -5.51  -7.52
  3623.84940  -5.101  15.4918  18.9122   8.69  -2.94  -7.02
  3623.84940  -6.645  15.4918  18.9122   8.69  -2.94  -7.02
  3628.77560  -5.847  15.8882  19.3039   8.59  -2.81  -6.89
  3632.61280  -5.732  15.8882  19.3003   8.60  -2.81  -6.89
  3632.61280  -6.785  15.8882  19.3003   8.60  -2.81  -6.89
  3633.68890  -6.004  15.4918  18.9029   8.68  -2.94  -7.02
  3636.55460  -3.991  16.7263  20.1347  13.14  -6.48  -7.65
  3636.89460  -6.047  15.8882  19.2963   8.59  -2.81  -6.89
  3636.89460  -8.589  15.8882  19.2963   8.59  -2.81  -6.89
  3638.27120  -6.140  15.8882  19.2950   8.59  -2.81  -6.89
  3640.01980  -4.580  15.8882  19.2934   8.67  -2.81  -6.89
  3640.01980  -6.166  15.8882  19.2934   8.67  -2.81  -6.89
  3645.08990  -4.831  15.8882  19.2886   8.68  -2.81  -6.89
  3645.08990  -5.137  15.8882  19.2886   8.68  -2.81  -6.89
  3652.49860  -4.693  16.7263  20.1199  13.14  -6.17  -7.65
  3672.73690  -5.244   9.5054  12.8803   9.06  -5.40  -7.48
  3676.04700  -5.071   9.5054  12.8772   9.06  -5.39  -7.48
  3685.95360  -1.816  12.5254  15.8882   8.93  -2.81  -6.89
  3686.13030  -1.663  12.5256  15.8882   8.93  -2.81  -6.89
  3686.13030  -2.963  12.5256  15.8882   8.93  -2.81  -6.89
  3689.95760  -4.399  15.2298  18.5889   9.01  -2.82  -7.13
  3694.22020  -4.398  12.1471  15.5024   8.66  -4.11  -6.99
  3695.42190  -5.032  12.1471  15.5013   8.66  -4.09  -6.99
  3730.17110  -8.636  15.4085  18.7314   8.38  -3.99  -7.01
  3738.06560  -3.295  15.4357  18.7516   8.36  -3.69  -7.02
  3744.65640  -6.925  15.6713  18.9814   8.41  -2.85  -6.96
  3748.91420  -7.546  12.1471  15.4534   9.38  -5.29  -7.53
  3751.78580  -3.480  15.4357  18.7394   8.36  -3.68  -7.02
  3751.78580  -4.778  15.4357  18.7394   8.36  -3.69  -7.02
  3752.19270  -6.798  12.1471  15.4505   9.42  -5.29  -7.53
  3760.90370  -6.207  15.4357  18.7314   8.33  -3.68  -7.02
  3760.90370  -7.155  15.4357  18.7314   8.33  -3.69  -7.02
  3771.90110  -1.301  15.4357  18.7218  14.87  -3.69  -7.02
  3771.90110  -3.050  15.4357  18.7218  14.87  -3.68  -7.02
  3771.90110  -4.227  15.4357  18.7218  14.87  -3.69  -7.02
  3786.64550  -3.905  16.6162  19.8895   9.48  -5.59  -7.52
  3791.80030  -6.317  12.1471  15.4160   9.66  -5.29  -7.53
  3793.52690  -6.552  12.1471  15.4145   9.63  -5.29  -7.53
  3795.36460  -1.134  12.5254  15.7912   8.92  -3.09  -6.86
  3795.55200  -0.980  12.5256  15.7912   8.92  -3.09  -6.86
  3795.55200  -2.281  12.5256  15.7912   8.92  -3.09  -6.86
  3795.57360  -3.843  16.6239  19.8895   9.48  -5.59  -7.52
  3802.43110  -3.706  15.4918  18.7516   8.34  -2.94  -7.02
  3802.43110  -5.250  15.4918  18.7516   8.34  -2.94  -7.02
  3815.07460  -6.140  16.6405  19.8895   9.48  -5.59  -7.52
  3816.62870  -3.838  15.4918  18.7394   8.34  -2.94  -7.02
  3817.45940  -2.975  16.6239  19.8708   9.48  -5.51  -7.52
  3820.69830  -5.122  15.4085  18.6527   8.63  -3.99  -7.01
  3821.28250  -1.492  15.4357  18.6793   9.26  -3.68  -7.02
  3821.28250  -2.680  15.4357  18.6793   9.26  -3.69  -7.02
  3824.61140  -4.864  15.6713  18.9122   8.68  -2.85  -6.96
  3824.61140  -6.408  15.6713  18.9122   8.68  -2.85  -6.96
  3826.43390  -4.321  13.4870  16.7263   7.97  -6.48  -7.69
  3831.91650  -3.393  14.6197  17.8544  11.81  -4.39  -7.22
  3832.58050  -3.215  13.4922  16.7263   7.97  -6.48  -7.69
  3835.06230  -3.111  14.6197  17.8518  11.81  -4.39  -7.22
  3835.57290  -5.766  15.6713  18.9029   8.67  -2.85  -6.96
  3837.18650  -5.071  16.6405  19.8708   9.48  -5.51  -7.52
  3837.44720  -1.620  15.4918  18.7218  14.87  -2.94  -7.02
  3837.44720  -3.164  15.4918  18.7218  14.87  -2.94  -7.02
  3837.44720  -3.319  15.4918  18.7218  14.87  -2.94  -7.02
  3838.40490  -5.790  15.4085  18.6377   8.63  -3.99  -7.01
  3852.94710  -5.715  15.4357  18.6527   8.61  -3.69  -7.02
  3852.94710  -6.521  15.4357  18.6527   8.61  -3.68  -7.02
  3853.66450  -1.330   6.8576  10.0740   8.08  -5.68  -7.69
  3856.01750  -0.370   6.8595  10.0740   8.08  -5.68  -7.69
  3862.59540  -0.810   6.8576  10.0665   8.08  -5.68  -7.69
  3870.95460  -6.297  15.4357  18.6377   8.60  -3.68  -7.02
  3877.27520  -1.598  16.3260  19.5229  12.72  -5.20  -7.69
  3884.79360  -9.721  16.3260  19.5167   9.29  -5.37  -7.69
  3888.57140  -1.763  15.4918  18.6793   9.26  -2.94  -7.02
  3895.77240  -6.600  15.7997  18.9814   8.40  -3.08  -6.99
  3900.02480  -2.569  16.3260  19.5042   9.29  -5.67  -7.63
  3905.98290  -6.377  15.4085  18.5819   9.02  -3.99  -7.01
  3917.02510  -4.214  12.5254  15.6898   9.01  -4.21  -6.99
  3918.24570  -3.777  16.3260  19.4895   9.29  -5.64  -7.68
  3918.50370  -3.935  16.7263  19.8895   9.47  -5.59  -7.52
  3920.03560  -4.370  12.5254  15.6874   8.98  -4.47  -6.96
  3920.23540  -3.552  12.5256  15.6874   8.98  -4.47  -6.96
  3921.62720  -1.555  16.3560  19.5167   9.30  -5.37  -7.69
  3923.36020  -4.642  14.6951  17.8544  11.81  -4.24  -7.24
  3926.65800  -5.338  14.6951  17.8518  11.81  -4.24  -7.24
  3926.66880  -4.337  14.6951  17.8518  11.81  -4.24  -7.24
  3930.48830  -5.177  13.4870  16.6405   8.07  -6.35  -7.68
  3930.89470  -2.807  15.4357  18.5889   9.01  -3.69  -7.02
  3930.89470  -6.963  15.4357  18.5889   9.01  -3.68  -7.02
  3936.97400  -4.020  13.4922  16.6405   8.07  -6.35  -7.68
  3937.14920  -2.792  16.3560  19.5042   9.29  -5.67  -7.63
  3939.69380  -3.062  15.4357  18.5819   9.01  -3.68  -7.02
  3939.69380  -4.005  15.4357  18.5819   9.01  -3.69  -7.02
  3941.83440  -2.961  16.7263  19.8708   9.47  -5.51  -7.52
  3951.40400  -3.999  13.4870  16.6239   8.07  -6.35  -7.68
  3954.30020  -1.077  12.5254  15.6600   8.90  -3.31  -6.93
  3954.50350  -0.923  12.5256  15.6600   8.90  -3.31  -6.93
  3954.50350  -2.223  12.5256  15.6600   8.90  -3.31  -6.93
  3955.71930  -1.718  16.3560  19.4895   9.30  -5.64  -7.68
  3957.95890  -3.350  13.4922  16.6239   8.07  -6.35  -7.68
  3958.34290  -3.264  12.5254  15.6568   8.98  -3.69  -7.05
  3961.12680  -4.297  13.4870  16.6162   8.07  -6.35  -7.68
  3965.03100  -4.086  12.5254  15.6515   9.01  -3.71  -7.11
  3965.23540  -3.016  12.5256  15.6515   9.01  -3.71  -7.11
  3972.39980  -2.292  12.1471  15.2674   8.80  -4.68  -7.10
  3977.56500   0.589  16.3260  19.4423   9.29  -5.27  -7.71
  3978.88850  -2.713  12.1471  15.2623   8.76  -4.99  -7.10
  3982.38500  -4.538  15.7997  18.9122   8.68  -3.08  -6.99
  3982.38500  -6.083  15.7997  18.9122   8.68  -3.08  -6.99
  3989.07030  -4.863  12.1471  15.2544   9.62  -5.29  -7.53
  3991.77970   0.714  16.3560  19.4612   9.29  -5.24  -7.71
  3994.27100  -5.440  15.7997  18.9029   8.67  -3.08  -6.99
  3997.92570  -0.842  16.3260  19.4264   9.32  -5.68  -7.71
  3999.02920  -2.807  16.3260  19.4256   9.32  -5.64  -7.71
  4002.13510  -4.192  15.4918  18.5889   9.00  -2.94  -7.02
  4002.59180  -2.569  10.3902  13.4870   9.63  -6.55  -7.81
  4015.62280  -5.992  15.8947  18.9814   8.40  -2.88  -6.93
  4016.18740  -0.722  16.3560  19.4423   9.29  -5.27  -7.71
  4016.18740  -0.936  16.3560  19.4423   9.33  -5.66  -7.71
  4024.07180  -3.476  15.6713  18.7516   8.33  -2.85  -6.96
  4024.07180  -5.019  15.6713  18.7516   8.33  -2.85  -6.96
  4028.46460  -2.332  10.4153  13.4922   9.63  -6.55  -7.81
  4035.27790  -3.249  10.4153  13.4870   9.63  -6.55  -7.81
  4036.94660  -2.543  16.3560  19.4264   9.33  -5.68  -7.71
  4038.07170  -4.810  16.3560  19.4256   9.33  -5.64  -7.71
  4039.97610  -3.607  15.6713  18.7394   8.33  -2.85  -6.96
  4056.98770  -1.443  12.8394  15.8947   8.54  -2.88  -6.93
  4056.98770  -2.987  12.8394  15.8947   8.54  -2.88  -6.93
  4057.00910  -1.556  12.8395  15.8947   8.54  -2.88  -6.93
  4063.30980  -1.392  15.6713  18.7218  14.87  -2.85  -6.96
  4063.30980  -2.936  15.6713  18.7218  14.87  -2.85  -6.96
  4063.30980  -3.091  15.6713  18.7218  14.87  -2.85  -6.96
  4072.70900  -2.500   9.8368  12.8803   9.56  -5.40  -7.48
  4075.45190  -1.400   9.8389  12.8803   9.56  -5.40  -7.48
  4076.77980  -1.680   9.8368  12.8772   9.56  -5.39  -7.48
  4107.70940  -3.931  15.8947  18.9122   8.68  -2.88  -6.93
  4107.70940  -5.476  15.8947  18.9122   8.68  -2.88  -6.93
  4120.35640  -4.833  15.8947  18.9029   8.67  -2.88  -6.93
  4120.67390  -1.535  15.6713  18.6793   9.26  -2.85  -6.96
  4128.05360   0.410   9.8368  12.8395   9.60  -5.54  -7.58
  4130.87150  -0.824   9.8389  12.8395   9.59  -5.54  -7.58
  4130.89370   0.530   9.8389  12.8394   9.59  -5.54  -7.58
  4144.93300  -6.283  13.7853  16.7757   9.42  -4.81  -7.36
  4163.64470  -3.126  12.5254  15.5024   8.91  -4.11  -6.99
  4163.87010  -2.168  12.5256  15.5024   8.90  -4.11  -6.99
  4165.17130  -2.485  12.5254  15.5013   8.90  -4.09  -6.99
  4167.43720  -2.866  16.3260  19.3003   9.31  -5.50  -7.73
  4173.07360  -2.563  16.3260  19.2963   9.30  -5.48  -7.73
  4174.88600  -4.142  16.3260  19.2950   9.30  -5.48  -7.73
  4177.18870  -1.062  16.3260  19.2934   9.32  -5.94  -7.73
  4183.35910  -0.830  13.4870  16.4499   8.03  -5.98  -7.70
  4183.86680  -0.463  16.3260  19.2886   9.32  -5.94  -7.73
  4187.12800  -1.144  12.8394  15.7997   8.54  -3.08  -6.99
  4187.12800  -2.688  12.8394  15.7997   8.54  -3.08  -6.99
  4187.15080  -1.257  12.8395  15.7997   8.55  -3.08  -6.99
  4190.70690  -0.330  13.4922  16.4499   8.03  -5.98  -7.70
  4198.13340  -0.600  13.4870  16.4395   8.03  -5.98  -7.70
  4199.10680  -3.157  15.7997  18.7516   8.32  -3.08  -6.99
  4199.10680  -4.700  15.7997  18.7516   8.32  -3.08  -6.99
  4200.65780  -0.889  12.5254  15.4761   8.91  -3.57  -7.01
  4200.88720  -2.034  12.5256  15.4761   8.91  -3.57  -7.01
  4200.89780  -0.733  12.5256  15.4761   8.91  -3.57  -7.01
  4204.70190  -2.028  16.3560  19.3039   9.31  -5.48  -7.73
  4209.85450  -1.419  16.3560  19.3003   9.31  -5.50  -7.73
  4215.60630  -5.292  16.3560  19.2963   9.31  -5.48  -7.73
  4216.42780  -3.289  15.7997  18.7394   8.32  -3.08  -6.99
  4219.80580  -0.408  16.3560  19.2934   9.32  -5.93  -7.73
  4226.62100  -1.865  16.3560  19.2886   9.33  -5.93  -7.73
  4232.84880  -1.498  12.1471  15.0754   9.02  -4.03  -7.25
  4233.25210  -6.548  12.5254  15.4534   9.44  -5.17  -7.57
  4237.43290  -7.355  12.5254  15.4505   9.48  -5.17  -7.57
  4237.66650  -5.752  12.5256  15.4505   9.48  -5.17  -7.57
  4241.85060  -1.076  15.7997  18.7218  14.87  -3.08  -6.99
  4241.85060  -2.620  15.7997  18.7218  14.87  -3.08  -6.99
  4241.85060  -2.775  15.7997  18.7218  14.87  -3.08  -6.99
  4246.10800  -5.789  12.5254  15.4445   9.54  -5.17  -7.57
  4246.34250  -6.971  12.5256  15.4445   9.54  -5.17  -7.57
  4248.42130  -3.963  15.6713  18.5889   9.00  -2.85  -6.96
  4259.19100  -1.794  12.1471  15.0573   9.02  -4.16  -7.26
  4267.71490  -5.272  12.5256  15.4299   9.70  -5.17  -7.57
  4282.97470  -5.587  13.4922  16.3862   8.01  -6.41  -7.70
  4288.01570  -5.791  12.5254  15.4160   9.69  -5.17  -7.57
  4290.22400  -9.461  12.5254  15.4145   9.66  -5.17  -7.57
  4290.46330  -5.321  12.5256  15.4145   9.66  -5.17  -7.57
  4291.77110  -7.497  12.5254  15.4135   9.62  -5.17  -7.57
  4292.01060  -5.670  12.5256  15.4135   9.62  -5.17  -7.57
  4304.40520  -1.219  15.7997  18.6793   9.26  -3.08  -6.99
  4307.39680  -5.244  13.4870  16.3646   8.00  -6.42  -7.70
  4315.18710  -4.383  13.4922  16.3646   8.00  -6.42  -7.70
  4330.93150  -3.250  13.4870  16.3490   8.00  -6.41  -7.70
  4338.68120  -2.555  15.8947  18.7516   8.32  -2.88  -6.93
  4338.68120  -4.099  15.8947  18.7516   8.32  -2.88  -6.93
  4338.80740  -2.451  13.4922  16.3490   8.00  -6.41  -7.70
  4339.08610  -2.778  14.1046  16.9612  14.18  -4.68  -7.38
  4339.11810  -2.921  14.1046  16.9612  14.18  -4.68  -7.38
  4339.11810  -4.048  14.1046  16.9612  14.18  -4.68  -7.38
  4345.43280  -2.352  13.4870  16.3394   8.00  -6.41  -7.70
  4357.17520  -2.688  15.8947  18.7394   8.32  -2.88  -6.93
  4363.88160  -2.100  13.9353  16.7757   9.42  -4.66  -7.38
  4363.91210  -3.056  13.9353  16.7757   9.42  -4.66  -7.38
  4365.06300  -3.091  13.9353  16.7749   9.42  -4.66  -7.38
  4365.09350  -1.908  13.9353  16.7749   9.42  -4.66  -7.38
  4376.96940  -0.904  12.8394  15.6713   8.55  -2.85  -6.96
  4376.96940  -2.448  12.8394  15.6713   8.55  -2.85  -6.96
  4376.99430  -1.017  12.8395  15.6713   8.55  -2.85  -6.96
  4377.45240  -1.562  14.1296  16.9612  14.18  -4.86  -7.33
  4380.26040  -1.324  14.1315  16.9612  14.18  -4.87  -7.33
  4380.26040  -2.215  14.1315  16.9612  14.18  -4.87  -7.33
  4384.32910  -0.477  15.8947  18.7218  14.87  -2.88  -6.93
  4384.32910  -2.021  15.8947  18.7218  14.87  -2.88  -6.93
  4384.32910  -2.176  15.8947  18.7218  14.87  -2.88  -6.93
  4436.42200  -4.592  14.1673  16.9612  14.18  -5.99  -7.65
  4436.42200  -5.618  14.1673  16.9612  14.18  -5.97  -7.65
  4443.99110  -3.646  15.7997  18.5889   9.00  -3.08  -6.99
  4448.56510  -4.596  14.1749  16.9612  14.18  -5.97  -7.65
  4448.56510  -4.994  14.1749  16.9612  14.18  -5.99  -7.65
  4451.18950  -0.620  15.8947  18.6793   9.25  -2.88  -6.93
  4465.94000  -4.513  14.1857  16.9612  14.18  -5.97  -7.65
  4505.34790  -3.529  15.1032  17.8544  11.81  -4.00  -7.11
  4509.69720  -3.247  15.1032  17.8518  11.81  -4.00  -7.11
  4520.42320  -2.383  12.5254  15.2674   8.99  -4.68  -7.10
  4520.68900  -1.430  12.5256  15.2674   8.99  -4.68  -7.10
  4528.82750  -1.754  12.5254  15.2623   8.96  -4.99  -7.10
  4542.02300  -4.391  12.5254  15.2544   9.65  -5.17  -7.57
  4542.29130  -3.430  12.5256  15.2544   9.65  -5.17  -7.57
  4577.36280  -4.379  15.1465  17.8544  11.81  -4.04  -7.12
  4581.85230  -5.025  15.1465  17.8518  11.81  -4.04  -7.12
  4581.86490  -4.103  15.1465  17.8518  11.81  -4.06  -7.12
  4600.62270  -3.049  15.8947  18.5889   9.00  -2.88  -6.93
  4621.41820  -0.540  12.5254  15.2075   8.93  -3.86  -7.11
  4621.69600  -1.680  12.5256  15.2075   8.92  -3.86  -7.11
  4621.72160  -0.380  12.5256  15.2075   8.92  -3.86  -7.11
  4661.04750  -1.792  16.3394  18.9987   8.54  -5.29  -7.58
  4671.72040  -3.361  16.3394  18.9926   8.56  -5.29  -7.58
  4673.25570  -0.600  12.8394  15.4918   8.56  -2.94  -7.02
  4673.25570  -2.140  12.8394  15.4918   8.56  -2.94  -7.02
  4673.28410  -0.710  12.8395  15.4918   8.56  -2.94  -7.02
  4677.84780  -1.499  16.3490  18.9987   8.54  -5.29  -7.58
  4688.59790  -1.902  16.3490  18.9926   8.56  -5.29  -7.58
  4693.14320  -1.880  12.1471  14.7882   8.79  -4.37  -7.23
  4699.45060  -2.132  12.1471  14.7847   8.81  -4.36  -7.23
  4708.62760  -3.603  16.3490  18.9814   8.54  -5.29  -7.58
  4716.49600  -1.001  16.3646  18.9926   8.56  -5.29  -7.58
  4727.93670  -8.284  14.1046  16.7263   8.46  -4.68  -7.38
  4733.47950  -7.252  14.1563  16.7749   9.40  -4.69  -7.42
  4736.76520  -2.627  16.3646  18.9814   8.54  -5.29  -7.58
  4773.48480  -5.100  14.1296  16.7263   8.19  -4.86  -7.33
  4774.28950  -2.121  12.8394  15.4357   8.57  -3.69  -7.02
  4774.31920  -2.275  12.8395  15.4357   8.57  -3.68  -7.02
  4774.31920  -3.422  12.8395  15.4357   8.57  -3.69  -7.02
  4776.19640  -0.641  16.3862  18.9814   8.54  -5.29  -7.58
  4776.82400  -4.702  14.1315  16.7263   8.18  -4.87  -7.33
  4842.03610  -0.849  16.3394  18.8993   8.75  -5.30  -7.58
  4843.32630  -3.281  16.4395  18.9987   8.54  -5.29  -7.58
  4843.69240  -6.779  14.1673  16.7263   7.97  -6.46  -7.69
  4844.79100  -1.471  12.8772  15.4357   7.88  -3.68  -7.02
  4845.20420  -0.750  16.3394  18.8976   8.76  -5.29  -7.58
  4850.55250  -1.217  12.8803  15.4357   7.88  -3.69  -7.02
  4850.55250  -2.172  12.8803  15.4357   7.88  -3.68  -7.02
  4853.27930  -0.753  16.3490  18.9029   8.75  -5.30  -7.58
  4854.85140  -2.459  16.4395  18.9926   8.57  -5.29  -7.58
  4858.17090  -6.206  14.1749  16.7263   7.97  -6.48  -7.69
  4860.16900  -0.473  16.3490  18.8993   8.75  -5.30  -7.58
  4860.76690  -1.993  12.5254  15.0754   9.15  -4.03  -7.25
  4861.07410  -1.041  12.5256  15.0754   9.14  -4.03  -7.25
  4863.14090  -3.307  16.4499  18.9987   8.54  -5.29  -7.58
  4863.36090  -0.801  16.3490  18.8976   8.76  -5.29  -7.58
  4865.42480  -0.905  16.3646  18.9122   8.76  -5.30  -7.58
  4874.76050  -2.027  16.4499  18.9926   8.57  -5.29  -7.58
  4883.17780  -0.300  16.3646  18.9029   8.75  -5.30  -7.58
  4887.77850  -6.833  14.1046  16.6405   8.49  -4.68  -7.38
  4887.81910  -7.556  14.1046  16.6405   8.49  -4.68  -7.38
  4890.15270  -0.685  16.3646  18.8993   8.75  -5.30  -7.58
  4895.53600  -1.278  12.5254  15.0573   9.15  -4.16  -7.26
  4896.41590  -2.552  16.4499  18.9814   8.54  -5.29  -7.58
  4896.76130  -1.889  12.8772  15.4085   8.00  -3.99  -7.01
  4902.64720  -1.588  12.8803  15.4085   8.00  -3.99  -7.01
  4907.03650  -0.010  16.3862  18.9122   8.76  -5.30  -7.58
  4920.20590  -7.296  14.1046  16.6239   8.49  -4.68  -7.38
  4925.09500  -0.871  16.3862  18.9029   8.75  -5.30  -7.58
  4932.46000  -0.120  16.7757  19.2886   0.00  -5.02   0.00
  4940.08690  -4.076  14.1315  16.6405   8.25  -4.87  -7.33
  4969.55310  -5.837  14.1296  16.6239   8.25  -4.86  -7.33
  4973.17240  -4.712  14.1315  16.6239   8.24  -4.87  -7.33
  4977.87240  -3.580  10.3902  12.8803   9.63  -5.40  -7.48
  4983.95500  -3.265  10.3902  12.8772   9.63  -5.39  -7.48
  4984.94160  -4.521  14.1296  16.6162   8.25  -4.86  -7.33
  4988.58330  -4.379  14.1315  16.6162   8.24  -4.87  -7.33
  5011.63850  -5.117  14.1673  16.6405   8.07  -6.35  -7.68
  5014.24520  -5.123  14.4892  16.9612  14.18  -5.93  -7.65
  5027.13990  -3.856  14.1749  16.6405   8.07  -6.35  -7.68
  5028.52820  -2.847  10.4153  12.8803   9.63  -5.40  -7.48
  5034.73530  -3.805  10.4153  12.8772   9.63  -5.39  -7.48
  5039.04440  -2.561  16.4395  18.8993   8.76  -5.30  -7.58
  5041.02380   0.150  10.0665  12.5254   8.95  -5.17  -7.57
  5042.47560  -2.954  16.4395  18.8976   8.76  -5.29  -7.58
  5043.58990  -4.091  14.5036  16.9612  14.18  -5.92  -7.65
  5043.58990  -5.369  14.5036  16.9612  14.18  -5.92  -7.65
  5045.69250  -4.063  14.1673  16.6239   8.06  -6.35  -7.68
  5049.33940  -3.188  14.1857  16.6405   8.07  -6.35  -7.68
  5053.02730  -2.220  16.4499  18.9029   8.75  -5.30  -7.58
  5055.98410   0.530  10.0740  12.5256   8.95  -5.17  -7.57
  5056.31650  -0.359  10.0740  12.5254   8.95  -5.17  -7.57
  5060.49620  -3.834  16.4499  18.8993   8.76  -5.30  -7.58
  5061.40570  -3.462  14.1749  16.6239   8.07  -6.35  -7.68
  5061.55690  -4.170  14.1673  16.6162   8.06  -6.35  -7.68
  5063.95670  -3.566  16.4499  18.8976   8.76  -5.29  -7.58
  5067.70460  -3.637  15.4085  17.8544  11.81  -3.99  -7.01
  5073.20800  -3.355  15.4085  17.8518  11.81  -3.99  -7.01
  5094.91590  -3.192  14.5284  16.9612  14.18  -5.94  -7.65
  5094.91590  -4.242  14.5284  16.9612  14.18  -5.94  -7.65
  5113.16750  -3.336  10.4153  12.8395   9.66  -5.54  -7.58
  5120.45340  -1.538  13.9353  16.3560   9.29  -4.66  -7.38
  5124.59530  -4.310  15.4357  17.8544  11.81  -3.68  -7.02
  5130.22310  -4.046  15.4357  17.8518  11.81  -3.69  -7.02
  5130.22310  -4.936  15.4357  17.8518  11.81  -3.68  -7.02
  5159.24050  -7.190  13.4922  15.8947   6.80  -2.88  -6.93
  5181.89130   0.180  16.3394  18.7314   8.46  -5.40  -7.59
  5184.59480  -1.696  13.9353  16.3260   9.28  -4.66  -7.38
  5184.63780  -2.866  13.9353  16.3260   9.28  -4.66  -7.38
  5185.23210   0.532  16.3490  18.7394   8.48  -5.40  -7.59
  5185.51990  -0.295  12.8394  15.2298   8.57  -2.82  -7.13
  5185.51990  -1.839  12.8394  15.2298   8.57  -2.82  -7.13
  5185.55490  -0.408  12.8395  15.2298   8.57  -2.82  -7.13
  5192.85980   0.670  16.3646  18.7516   8.48  -5.40  -7.59
  5202.43960  -1.310  16.6162  18.9987   8.56  -5.29  -7.58
  5202.66430   0.890  16.3490  18.7314   8.46  -5.40  -7.59
  5202.68060   0.871  16.3862  18.7687   8.45  -5.40  -7.59
  5215.73940  -0.620  16.6162  18.9926   8.58  -5.29  -7.58
  5219.30660  -0.475  16.6239  18.9987   8.56  -5.29  -7.58
  5219.37470  -0.020  16.3646  18.7394   8.48  -5.40  -7.59
  5223.73290  -1.460  16.3490  18.7218  14.87  -5.33  -7.54
  5232.69290  -0.910  16.6239  18.9926   8.58  -5.29  -7.58
  5237.03770  -1.315  16.3646  18.7314   8.46  -5.40  -7.59
  5240.28790  -0.390  16.3862  18.7516   8.48  -5.40  -7.59
  5257.65330  -0.552  16.6239  18.9814   8.56  -5.29  -7.58
  5258.38610  -0.579  16.3646  18.7218  14.87  -5.33  -7.54
  5258.38610  -1.326  16.3646  18.7218  14.87  -5.79  -7.70
  5259.95200  -4.344  12.1471  14.5036   9.27  -5.29  -7.53
  5267.29060  -1.504  16.3862  18.7394   8.48  -5.40  -7.59
  5269.82840  -0.280  16.6405  18.9926   8.58  -5.29  -7.58
  5285.09270  -6.603  14.1046  16.4499   8.48  -4.68  -7.38
  5292.25230  -5.034  12.1471  14.4892   9.26  -5.29  -7.53
  5295.14520  -0.120  16.6405  18.9814   8.56  -5.29  -7.58
  5307.02430   0.172  16.3862  18.7218  14.87  -5.33  -7.54
  5307.02430  -2.477  16.3862  18.7218  14.87  -5.79  -7.70
  5318.92290  -1.643  16.3490  18.6793   9.28  -5.76  -7.70
  5342.07280  -1.893  14.1296  16.4499   8.22  -4.86  -7.33
  5346.25520  -1.243  14.1315  16.4499   8.22  -4.87  -7.33
  5354.85480  -1.532  16.3646  18.6793   9.28  -5.76  -7.70
  5358.25590  -1.266  16.3394  18.6527   8.68  -5.34  -7.54
  5366.18840  -1.615  14.1296  16.4395   8.22  -4.86  -7.33
  5370.40870  -1.961  14.1315  16.4395   8.22  -4.87  -7.33
  5371.55140  -9.065  13.4922  15.7997   6.99  -3.08  -6.99
  5372.68010  -1.707  12.8394  15.1465   8.59  -4.06  -7.12
  5372.71760  -3.008  12.8395  15.1465   8.59  -4.06  -7.12
  5372.73490  -1.862  12.8395  15.1465   8.59  -4.04  -7.12
  5380.47000  -0.417  16.3490  18.6527   8.68  -5.34  -7.54
  5393.14570  -0.500  16.3394  18.6377   8.68  -5.34  -7.54
  5405.30250   0.110  16.3862  18.6793   9.28  -5.76  -7.70
  5408.17110  -1.341  16.4395  18.7314   8.47  -5.40  -7.59
  5413.88220  -1.455  16.4499  18.7394   8.49  -5.40  -7.59
  5415.65070  -0.473  16.3490  18.6377   8.68  -5.34  -7.54
  5417.24120   0.040  16.3646  18.6527   8.68  -5.34  -7.54
  5428.93500   0.051  16.6162  18.8993   8.77  -5.30  -7.58
  5430.15590  -2.966  14.1673  16.4499   8.03  -5.98  -7.70
  5432.64050  -4.668  14.1046  16.3862   8.47  -4.68  -7.38
  5432.69070  -5.981  14.1046  16.3862   8.47  -4.68  -7.38
  5432.88850  -2.099  16.4499  18.7314   8.47  -5.40  -7.59
  5432.91800   0.010  16.6162  18.8976   8.77  -5.29  -7.58
  5438.65190   0.280  16.6239  18.9029   8.76  -5.30  -7.58
  5447.30520   0.069  16.6239  18.8993   8.77  -5.30  -7.58
  5448.35910  -2.357  14.1749  16.4499   8.03  -5.98  -7.70
  5451.31520  -0.777  16.6239  18.8976   8.77  -5.29  -7.58
  5454.61080  -0.004  16.7263  18.9987   8.53  -5.29  -7.58
  5455.07510  -2.220  14.1673  16.4395   8.03  -5.98  -7.70
  5455.86700  -3.883  16.4499  18.7218  14.87  -5.33  -7.54
  5456.44170   0.650  16.6405  18.9122   8.77  -5.30  -7.58
  5462.14480  -1.107  12.8772  15.1465   7.98  -4.04  -7.12
  5466.46070  -0.311  12.5254  14.7929   8.95  -4.20  -7.23
  5466.84930  -1.457  12.5256  14.7929   8.95  -4.20  -7.23
  5466.89410  -0.156  12.5256  14.7929   8.95  -4.20  -7.23
  5469.23290   0.242  16.7263  18.9926   8.55  -5.29  -7.58
  5469.45140  -0.853  12.8803  15.1465   7.98  -4.06  -7.12
  5469.46930  -1.807  12.8803  15.1465   7.98  -4.04  -7.12
  5477.70170  -2.847  12.5254  14.7882   8.99  -4.37  -7.23
  5478.09200  -1.897  12.5256  14.7882   8.98  -4.37  -7.23
  5478.77950  -0.162  16.6405  18.9029   8.76  -5.30  -7.58
  5484.57150  -3.813  14.1046  16.3646   8.47  -4.68  -7.38
  5484.62270  -4.525  14.1046  16.3646   8.47  -4.68  -7.38
  5486.29620  -2.068  12.5254  14.7847   9.00  -4.36  -7.23
  5487.56100  -1.186  16.6405  18.8993   8.77  -5.30  -7.58
  5496.50670   0.280  16.7263  18.9814   8.53  -5.29  -7.58
  5522.83630  -4.011  14.1046  16.3490   8.47  -4.68  -7.38
  5527.51140  -1.461  16.3394  18.5819   9.04  -5.58  -7.65
  5533.70110  -1.615  16.3490  18.5889   9.04  -5.58  -7.65
  5540.80730  -0.980  14.4892  16.7263   9.17  -5.93  -7.69
  5550.51930  -4.077  14.1315  16.3646   8.20  -4.87  -7.33
  5551.15420  -2.176  16.3490  18.5819   9.04  -5.58  -7.65
  5559.78910  -2.628  16.4499  18.6793   9.28  -5.76  -7.70
  5568.35480  -1.575  12.8772  15.1032   8.10  -4.00  -7.11
  5572.60410  -2.822  16.3646  18.5889   9.04  -5.58  -7.65
  5575.96710  -1.274  12.8803  15.1032   8.10  -4.00  -7.11
  5576.66070  -0.470  14.5036  16.7263   9.18  -5.92  -7.69
  5585.08820  -4.603  14.1296  16.3490   8.21  -4.86  -7.33
  5589.65990  -3.197  14.1315  16.3490   8.20  -4.87  -7.33
  5590.30380  -3.463  16.3646  18.5819   9.04  -5.58  -7.65
  5600.56040  -4.485  16.4395  18.6527   8.68  -5.34  -7.54
  5605.35240  -2.116  14.1749  16.3862   8.01  -6.41  -7.70
  5609.22710  -3.318  14.1296  16.3394   8.21  -4.86  -7.33
  5613.83850  -3.678  14.1315  16.3394   8.20  -4.87  -7.33
  5627.07190  -3.543  16.4499  18.6527   8.68  -5.34  -7.54
  5627.25880  -3.707  16.3862  18.5889   9.04  -5.58  -7.65
  5632.96610  -0.700  14.1857  16.3862   8.01  -6.41  -7.70
  5634.87430  -5.552  14.1563  16.3560   9.25  -4.69  -7.42
  5634.87430  -7.100  14.1563  16.3560   9.25  -4.69  -7.42
  5638.68820  -2.502  16.4395  18.6377   8.68  -5.34  -7.54
  5639.47710  -0.130  14.5284  16.7263   9.19  -5.94  -7.69
  5641.00770  -1.964  14.1673  16.3646   8.00  -6.42  -7.70
  5660.65460  -0.650  14.1749  16.3646   8.00  -6.42  -7.70
  5665.56280  -2.091  16.4499  18.6377   8.68  -5.34  -7.54
  5669.56310   0.300  14.2000  16.3862   8.00  -6.41  -7.70
  5681.43950  -0.640  14.1673  16.3490   8.00  -6.41  -7.70
  5688.04040  -7.730  13.4922  15.6713   7.14  -2.85  -6.96
  5688.81720   0.110  14.1857  16.3646   8.00  -6.42  -7.70
  5694.63400  -1.856  16.7263  18.9029   8.74  -5.30  -7.58
  5694.87400  -0.624  14.7847  16.9612  14.18  -4.36  -7.23
  5701.36960  -0.080  14.1749  16.3490   8.00  -6.41  -7.70
  5704.12170  -2.434  16.7263  18.8993   8.75  -5.30  -7.58
  5704.16400  -0.429  14.7882  16.9612  14.18  -4.37  -7.23
  5704.16400  -1.339  14.7882  16.9612  14.18  -4.37  -7.23
  5706.42040  -0.240  14.1673  16.3394   8.00  -6.41  -7.70
  5708.51880  -3.383  16.7263  18.8976   8.75  -5.29  -7.58
  5712.70080  -5.418  14.1563  16.3260   9.25  -4.69  -7.42
  5716.35600  -2.288  14.7929  16.9612  14.18  -4.20  -7.23
  5716.40500  -2.433  14.7929  16.9612  14.18  -4.20  -7.23
  5716.40500  -3.581  14.7929  16.9612  14.18  -4.20  -7.23
  5749.26650  -6.332  14.6197  16.7757   9.41  -4.39  -7.22
  5785.73400   0.230  16.4395  18.5819   9.04  -5.58  -7.65
  5794.88970   0.450  16.4499  18.5889   9.04  -5.58  -7.65
  5800.45420  -0.100  14.5036  16.6405   9.19  -5.92  -7.68
  5806.73090  -0.110  14.4892  16.6239   9.18  -5.93  -7.68
  5814.03200  -0.673  16.4499  18.5819   9.04  -5.58  -7.65
  5827.75170  -0.890  14.4892  16.6162   9.18  -5.93  -7.68
  5846.12050  -0.440  14.5036  16.6239   9.19  -5.92  -7.68
  5858.97570  -2.521  16.6239  18.7394   8.50  -5.40  -7.59
  5859.83420  -3.225  16.6162  18.7314   8.48  -5.40  -7.59
  5867.42800  -0.043  14.5036  16.6162   9.19  -5.92  -7.68
  5868.44400   0.410  14.5284  16.6405   9.19  -5.94  -7.68
  5871.64950  -2.189  16.6405  18.7516   8.50  -5.40  -7.59
  5881.24200  -3.131  16.6239  18.7314   8.48  -5.40  -7.59
  5905.57180  -2.871  16.6405  18.7394   8.50  -5.40  -7.59
  5908.17890  -0.223  16.6239  18.7218  14.87  -5.33  -7.54
  5915.19150  -0.440  14.5284  16.6239   9.19  -5.94  -7.68
  5928.19430  -4.175  16.6405  18.7314   8.48  -5.40  -7.59
  5955.56410   0.202  16.6405  18.7218  14.87  -5.33  -7.54
  5955.56410  -2.370  16.6405  18.7218  14.87  -5.79  -7.68
  5957.55870  -0.260  10.0665  12.1471   8.74  -5.29  -7.53
  5957.59780  -2.533  14.6951  16.7757   9.40  -4.24  -7.24
  5957.62260  -3.487  14.6951  16.7757   9.40  -4.24  -7.24
  5959.79980  -3.499  14.6951  16.7749   9.40  -4.24  -7.24
  5959.82460  -2.342  14.6951  16.7749   9.40  -4.24  -7.24
  5978.92960   0.040  10.0740  12.1471   8.74  -5.29  -7.53
  6030.23880  -1.652  16.6239  18.6793   9.28  -5.76  -7.68
  6079.61030  -1.452  16.6405  18.6793   9.28  -5.76  -7.68
  6086.37260  -0.205  16.6162  18.6527   8.69  -5.34  -7.54
  6109.47080  -0.613  16.6239  18.6527   8.69  -5.34  -7.54
  6131.42850  -0.938  16.6162  18.6377   8.69  -5.34  -7.54
  6135.69970  -9.898  12.1471  14.1673   8.63  -5.29  -7.53
  6154.87060  -0.215  16.6239  18.6377   8.69  -5.34  -7.54
  6157.13740  -5.386  16.7263  18.7394   8.47  -5.40  -7.59
  6160.15360  -0.222  16.6405  18.6527   8.69  -5.34  -7.54
  6181.73230  -5.671  16.7263  18.7314   8.45  -5.40  -7.59
  6198.75850  -7.370  13.4922  15.4918   7.29  -2.94  -7.02
  6211.49910  -0.556  16.7263  18.7218  14.87  -5.33  -7.54
  6239.61400   0.185  12.8394  14.8260   8.59  -3.54  -7.25
  6239.61400  -1.359  12.8394  14.8260   8.59  -3.54  -7.25
  6239.66460   0.072  12.8395  14.8260   8.59  -3.54  -7.25
  6246.46390  -3.343  12.1471  14.1315   8.69  -4.87  -7.33
  6252.18310  -3.594  12.1471  14.1296   8.69  -4.86  -7.33
  6265.76490  -4.996  12.5254  14.5036   9.34  -5.17  -7.57
  6266.27550  -4.043  12.5256  14.5036   9.34  -5.17  -7.57
  6305.69320  -6.466  16.6162  18.5819   9.04  -5.58  -7.65
  6307.80190  -4.011  16.6239  18.5889   9.04  -5.58  -7.65
  6311.65290  -4.686  12.5254  14.4892   9.34  -5.17  -7.57
  6321.83460  -1.844  14.4892  16.4499   9.18  -5.93  -7.70
  6330.48940  -3.487  16.6239  18.5819   9.04  -5.58  -7.65
  6346.55670  -2.093  16.7263  18.6793   9.27  -5.76  -7.69
  6347.10870   0.170   8.1211  10.0740   9.08  -5.68  -7.69
  6347.13290  -1.421  13.9353  15.8882   8.48  -2.81  -6.89
  6347.19730  -1.267  13.9353  15.8882   8.48  -2.81  -6.89
  6347.19730  -2.568  13.9353  15.8882   8.48  -2.81  -6.89
  6355.63490  -2.047  14.4892  16.4395   9.18  -5.93  -7.70
  6359.94100  -6.815  14.8260  16.7749   9.39  -3.54  -7.25
  6360.77870  -3.830  13.4870  15.4357   7.44  -3.68  -7.02
  6360.77870  -4.715  13.4870  15.4357   7.44  -3.69  -7.02
  6361.84330  -2.825  16.6405  18.5889   9.04  -5.58  -7.65
  6368.55050  -4.133  14.5036  16.4499   9.18  -5.92  -7.70
  6371.37140  -0.040   8.1211  10.0665   9.08  -5.68  -7.69
  6377.78140  -3.636  13.4922  15.4357   7.44  -3.69  -7.02
  6377.78140  -4.741  13.4922  15.4357   7.44  -3.68  -7.02
  6383.90670  -3.791  14.7847  16.7263   8.49  -4.36  -7.23
  6384.92190  -3.850  16.6405  18.5819   9.04  -5.58  -7.65
  6395.58290  -3.210  14.7882  16.7263   8.45  -4.37  -7.23
  6402.85360  -3.538  14.5036  16.4395   9.18  -5.92  -7.70
  6410.97530  -7.635  14.7929  16.7263   8.32  -4.20  -7.23
  6434.37940  -1.030  16.7263  18.6527   8.67  -5.34  -7.54
  6450.60440  -3.279  14.5284  16.4499   9.19  -5.94  -7.70
  6450.66260  -8.030  13.4870  15.4085   7.71  -3.99  -7.01
  6484.75620  -1.562  16.7263  18.6377   8.67  -5.34  -7.54
  6508.22000  -2.621  13.7853  15.6898   8.66  -4.21  -6.99
  6510.36450   0.007  15.0573  16.9612  14.18  -4.16  -7.26
  6516.53490  -2.408  13.7853  15.6874   8.60  -4.47  -6.96
  6572.88840   0.250  15.0754  16.9612  14.18  -4.03  -7.25
  6572.88840  -0.665  15.0754  16.9612  14.18  -4.03  -7.25
  6623.08290  -2.810  13.7853  15.6568   8.61  -3.69  -7.05
  6641.82770  -2.377  13.7853  15.6515   8.68  -3.71  -7.11
  6654.74650  -3.012  16.7263  18.5889   9.03  -5.58  -7.65
  6660.53240   0.162  14.5036  16.3646   9.18  -5.92  -7.70
  6665.02620  -0.240  14.4892  16.3490   9.18  -5.93  -7.70
  6671.84060   0.410  14.5284  16.3862   9.19  -5.94  -7.70
  6678.65560  -1.133  13.9353  15.7912   8.44  -3.09  -6.86
  6678.72700  -0.979  13.9353  15.7912   8.43  -3.09  -6.86
  6678.72700  -2.280  13.9353  15.7912   8.43  -3.09  -6.86
  6679.56590  -1.163  12.8394  14.6951   8.63  -4.24  -7.24
  6679.62400  -2.464  12.8395  14.6951   8.64  -4.24  -7.24
  6679.65520  -1.317  12.8395  14.6951   8.64  -4.24  -7.24
  6680.00330  -4.242  16.7263  18.5819   9.03  -5.58  -7.65
  6691.67340  -4.960  14.7882  16.6405   8.49  -4.37  -7.23
  6699.43130  -0.250  14.4892  16.3394   9.18  -5.93  -7.70
  6708.45840  -6.798  14.7929  16.6405   8.37  -4.20  -7.23
  6708.52590  -8.263  14.7929  16.6405   8.37  -4.20  -7.23
  6716.97270  -0.095  14.5036  16.3490   9.18  -5.92  -7.70
  6739.50950  -3.702  14.7847  16.6239   8.52  -4.36  -7.23
  6750.33560  -0.212  14.5284  16.3646   9.19  -5.94  -7.70
  6751.91760  -0.927  14.5036  16.3394   9.18  -5.92  -7.70
  6752.52410  -3.141  14.7882  16.6239   8.49  -4.37  -7.23
  6767.84260  -4.948  14.7847  16.6162   8.52  -4.36  -7.23
  6769.68490  -8.458  14.7929  16.6239   8.36  -4.20  -7.23
  6780.96690  -3.696  14.7882  16.6162   8.49  -4.37  -7.23
  6808.31470  -1.211  14.5284  16.3490   9.19  -5.94  -7.70
  6818.41440  -0.565  12.8772  14.6951   8.15  -4.24  -7.24
  6829.79890  -0.311  12.8803  14.6951   8.14  -4.24  -7.24
  6829.83160  -1.265  12.8803  14.6951   8.15  -4.24  -7.24
  6924.37670  -1.016  14.1046  15.8947   8.30  -2.88  -6.93
  6924.37670  -2.560  14.1046  15.8947   8.30  -2.88  -6.93
  6924.45830  -1.129  14.1046  15.8947   8.30  -2.88  -6.93
  7064.77020  -2.429  13.9353  15.6898   8.66  -4.21  -6.99
  7067.81200  -1.917  15.2075  16.9612  14.18  -3.86  -7.11
  7067.87190  -2.061  15.2075  16.9612  14.18  -3.86  -7.11
  7067.87190  -3.214  15.2075  16.9612  14.18  -3.86  -7.11
  7074.56910  -3.080  13.9353  15.6874   8.60  -4.47  -6.96
  7074.64920  -2.137  13.9353  15.6874   8.60  -4.47  -6.96
  7113.42040  -1.109  12.8772  14.6197   8.25  -4.39  -7.22
  7125.84780  -0.809  12.8803  14.6197   8.25  -4.39  -7.22
  7133.48500  -7.217  13.4922  15.2298   7.46  -2.82  -7.13
  7157.12000  -3.179  14.1563  15.8882   8.20  -2.81  -6.89
  7157.12000  -3.292  14.1563  15.8882   8.20  -2.81  -6.89
  7157.12000  -4.723  14.1563  15.8882   8.20  -2.81  -6.89
  7186.95720  -0.953  13.9353  15.6600   8.39  -3.31  -6.93
  7187.03990  -0.799  13.9353  15.6600   8.39  -3.31  -6.93
  7187.03990  -2.100  13.9353  15.6600   8.39  -3.31  -6.93
  7200.32240  -4.095  13.9353  15.6568   8.61  -3.69  -7.05
  7207.42900  -4.654  14.1749  15.8947   6.77  -2.88  -6.93
  7215.85660  -6.557   8.1211   9.8389   9.67  -5.75  -7.75
  7218.62330  -3.039  13.7853  15.5024   8.40  -4.11  -6.99
  7222.48250  -6.669  13.9353  15.6515   8.67  -3.71  -7.11
  7222.56600  -7.397  13.9353  15.6515   8.67  -3.71  -7.11
  7223.21310  -3.439  13.7853  15.5013   8.39  -4.09  -6.99
  7224.47100  -6.735   8.1211   9.8368   9.67  -5.75  -7.75
  7253.14720  -4.496  14.1857  15.8947   6.77  -2.88  -6.93
  7253.14720  -6.040  14.1857  15.8947   6.77  -2.88  -6.93
  7262.00920  -2.233  15.2544  16.9612  14.18  -5.97  -7.65
  7262.00920  -3.166  15.2544  16.9612  14.18  -5.99  -7.65
  7295.99720  -0.535  15.2623  16.9612  14.18  -4.99  -7.10
  7312.27360  -0.723  14.1046  15.7997   8.31  -3.08  -6.99
  7312.27360  -2.267  14.1046  15.7997   8.31  -3.08  -6.99
  7312.36450  -0.835  14.1046  15.7997   8.31  -3.08  -6.99
  7317.91520  -0.203  15.2674  16.9612  14.18  -4.68  -7.10
  7317.91520  -1.120  15.2674  16.9612  14.18  -4.68  -7.10
  7411.34060  -6.388  15.1032  16.7757   9.40  -4.00  -7.11
  7426.73460  -3.419  15.0573  16.7263   8.86  -4.16  -7.26
  7430.44400  -7.117  13.7853  15.4534   9.34  -4.81  -7.36
  7443.33430  -6.354  13.7853  15.4505   9.39  -4.81  -7.36
  7443.42290  -1.281  14.7847  16.4499   8.50  -4.36  -7.23
  7459.30130  -0.677  14.7882  16.4499   8.47  -4.37  -7.23
  7462.93190  -1.896  14.6951  16.3560   9.26  -4.24  -7.24
  7466.07540  -3.668  12.5256  14.1857   8.89  -5.17  -7.57
  7469.08190  -4.701  13.4870  15.1465   7.66  -4.06  -7.12
  7469.11540  -3.820  13.4870  15.1465   7.67  -4.04  -7.12
  7480.24800  -5.825  14.7929  16.4499   8.34  -4.20  -7.23
  7490.32490  -1.004  14.7847  16.4395   8.50  -4.36  -7.23
  7492.53670  -3.626  13.4922  15.1465   7.66  -4.06  -7.12
  7492.57040  -4.740  13.4922  15.1465   7.66  -4.04  -7.12
  7506.40430  -1.388  14.7882  16.4395   8.47  -4.37  -7.23
  7508.20830  -2.887  15.0754  16.7263   8.85  -4.03  -7.25
  7514.41060  -3.815  12.5254  14.1749   8.89  -5.17  -7.57
  7515.14490  -4.875  12.5256  14.1749   8.89  -5.17  -7.57
  7549.31420  -6.827  12.5254  14.1673   8.89  -5.17  -7.57
  7550.05540  -7.819  12.5256  14.1673   8.89  -5.17  -7.57
  7581.48360  -2.741  14.1563  15.7912   8.11  -3.09  -6.86
  7581.48360  -2.854  14.1563  15.7912   8.11  -3.09  -6.86
  7581.48360  -4.285  14.1563  15.7912   8.11  -3.09  -6.86
  7600.01920  -2.047  14.6951  16.3260   9.25  -4.24  -7.24
  7600.05960  -3.216  14.6951  16.3260   9.25  -4.24  -7.24
  7600.82810  -6.350  13.7853  15.4160   9.64  -4.81  -7.36
  7607.76910  -6.928  13.7853  15.4145   9.61  -4.81  -7.36
  7608.24390  -2.847  15.1465  16.7757   9.39  -4.04  -7.12
  7608.27860  -3.800  15.1465  16.7757   9.39  -4.06  -7.12
  7611.83550  -3.777  15.1465  16.7749   9.39  -4.04  -7.12
  7611.87020  -2.659  15.1465  16.7749   9.39  -4.06  -7.12
  7628.65090  -4.612  14.1749  15.7997   6.97  -3.08  -6.99
  7669.14200  -8.707  13.4870  15.1032   7.89  -4.00  -7.11
  7679.88800  -4.488  14.1857  15.7997   6.97  -3.08  -6.99
  7679.88800  -6.032  14.1857  15.7997   6.97  -3.08  -6.99
  7717.69580  -4.361  12.5254  14.1315   8.92  -4.87  -7.33
  7718.47040  -3.396  12.5256  14.1315   8.92  -4.87  -7.33
  7726.42810  -3.732  12.5254  14.1296   8.92  -4.86  -7.33
  7779.29430  -5.849  14.7929  16.3862   8.33  -4.20  -7.23
  7779.38510  -7.343  14.7929  16.3862   8.33  -4.20  -7.23
  7848.81640   0.316  12.5254  14.1046   8.99  -4.68  -7.38
  7849.61750  -0.831  12.5256  14.1046   8.98  -4.68  -7.38
  7849.72230   0.470  12.5256  14.1046   8.98  -4.68  -7.38
  7863.03340  -3.631  14.7882  16.3646   8.46  -4.37  -7.23
  7886.21910  -5.457  14.7929  16.3646   8.33  -4.20  -7.23
  7886.31240  -6.081  14.7929  16.3646   8.33  -4.20  -7.23
  7909.75470  -2.848  13.9353  15.5024   8.40  -4.11  -6.99
  7909.85480  -1.893  13.9353  15.5024   8.40  -4.11  -6.99
  7911.51990  -0.464  14.1046  15.6713   8.32  -2.85  -6.96
  7911.51990  -2.008  14.1046  15.6713   8.32  -2.85  -6.96
  7911.62630  -0.577  14.1046  15.6713   8.32  -2.85  -6.96
  7912.42160  -3.656  15.0573  16.6239   8.87  -4.16  -7.26
  7915.26570  -2.182  13.9353  15.5013   8.39  -4.09  -6.99
  7919.59230  -3.751  15.0754  16.6405   8.87  -4.03  -7.25
  7923.81670  -3.265  14.7847  16.3490   8.50  -4.36  -7.23
  7941.81330  -3.231  14.7882  16.3490   8.46  -4.37  -7.23
  7951.50310  -4.035  15.0573  16.6162   8.87  -4.16  -7.26
  7965.56180  -5.827  14.7929  16.3490   8.33  -4.20  -7.23
  7972.49220  -3.076  14.7847  16.3394   8.49  -4.36  -7.23
  7990.71080  -3.462  14.7882  16.3394   8.46  -4.37  -7.23
  7997.23080 -13.503   5.3096   6.8595   5.91  -6.59  -7.92
  8004.96630  -2.778  15.0754  16.6239   8.87  -4.03  -7.25
  8007.37070 -10.558   5.3096   6.8576   5.93  -6.59  -7.92
  8007.37070 -12.397   5.3096   6.8576   5.93  -6.59  -7.92
  8008.62790  -4.533  15.4135  16.9612  14.18  -5.99  -7.65
  8008.62790  -5.515  15.4135  16.9612  14.18  -5.97  -7.65
  8014.02070  -4.091  15.4145  16.9612  14.18  -5.97  -7.65
  8014.02070  -5.774  15.4145  16.9612  14.18  -5.99  -7.65
  8021.73720  -4.581  15.4160  16.9612  14.18  -5.99  -7.65
  8022.07830  -6.517  15.2298  16.7749   9.39  -2.82  -7.13
  8044.40650  -0.722  13.9353  15.4761   8.42  -3.57  -7.01
  8044.51010  -1.868  13.9353  15.4761   8.42  -3.57  -7.01
  8044.54890  -0.567  13.9353  15.4761   8.42  -3.57  -7.01
  8044.96970  -3.821  15.0754  16.6162   8.87  -4.03  -7.25
  8067.13920 -10.077   5.3230   6.8595   5.91  -6.59  -7.92
  8067.13920 -11.486   5.3230   6.8595   5.91  -6.59  -7.92
  8077.45720  -9.968   5.3230   6.8576   5.93  -6.59  -7.92
  8077.45720 -12.922   5.3230   6.8576   5.93  -6.59  -7.92
  8094.61220  -3.413  15.4299  16.9612  14.18  -5.67  -7.65
  8101.12570  -5.467  14.8260  16.3560   9.25  -3.54  -7.25
  8101.12570  -7.015  14.8260  16.3560   9.25  -3.54  -7.25
  8161.08140  -7.181  15.2075  16.7263   8.21  -3.86  -7.11
  8164.79390  -6.947  13.9353  15.4534   9.34  -4.66  -7.38
  8172.62990  -4.084  15.4445  16.9612  14.18  -5.97  -7.65
  8172.62990  -4.914  15.4445  16.9612  14.18  -5.99  -7.65
  8180.36050  -7.632  13.9353  15.4505   9.39  -4.66  -7.38
  8180.46760  -6.146  13.9353  15.4505   9.39  -4.66  -7.38
  8181.65930  -2.916  16.3394  17.8544  11.81  -6.25  -7.70
  8182.88480  -9.371   5.3448   6.8595   5.91  -6.59  -7.92
  8182.88480 -10.942   5.3448   6.8595   5.91  -6.59  -7.92
  8193.50130 -10.501   5.3448   6.8576   5.93  -6.59  -7.92
  8193.50130 -11.551   5.3448   6.8576   5.93  -6.59  -7.92
  8196.01350  -3.098  16.3394  17.8518  11.81  -6.26  -7.70
  8204.96000  -4.490  15.4505  16.9612  14.18  -5.99  -7.65
  8204.96000  -4.723  15.4505  16.9612  14.18  -5.97  -7.65
  8212.75190  -5.299  13.9353  15.4445   9.46  -4.66  -7.38
  8212.85990  -7.222  13.9353  15.4445   9.46  -4.66  -7.38
  8220.68030  -5.498  15.4534  16.9612  14.18  -5.99  -7.65
  8233.56450  -3.396  16.3490  17.8544  11.81  -6.25  -7.70
  8243.30680  -2.410  14.1563  15.6600   8.01  -3.31  -6.93
  8243.30680  -2.523  14.1563  15.6600   8.01  -3.31  -6.93
  8243.30680  -3.954  14.1563  15.6600   8.01  -3.31  -6.93
  8248.10160  -2.860  16.3490  17.8518  11.81  -6.26  -7.70
  8262.96320  -5.225  14.8260  16.3260   9.24  -3.54  -7.25
  8283.19400  -4.410  14.1749  15.6713   7.12  -2.85  -6.96
  8293.18490  -4.409  13.9353  15.4299   9.65  -4.66  -7.38
  8334.82890  -4.548  16.3646  17.8518  11.81  -6.26  -7.70
  8343.63550  -4.295  14.1857  15.6713   7.12  -2.85  -6.96
  8343.63550  -5.839  14.1857  15.6713   7.12  -2.85  -6.96
  8346.40090  -1.584  15.4761  16.9612  14.18  -3.57  -7.01
  8346.44270  -1.725  15.4761  16.9612  14.18  -3.57  -7.01
  8346.44270  -2.882  15.4761  16.9612  14.18  -3.57  -7.01
  8362.95530  -1.649  13.7853  15.2674   8.64  -4.68  -7.10
  8370.98720  -6.888  13.9353  15.4160   9.64  -4.66  -7.38
  8379.40680  -8.911  13.9353  15.4145   9.61  -4.66  -7.38
  8379.51920  -6.036  13.9353  15.4145   9.61  -4.66  -7.38
  8385.31070  -5.880  13.9353  15.4135   9.55  -4.66  -7.38
  8385.42320  -6.044  13.9353  15.4135   9.55  -4.66  -7.38
  8391.76520  -2.034  13.7853  15.2623   8.56  -4.81  -7.10
  8421.02250  -7.376  15.2544  16.7263   9.58  -6.23  -7.69
  8437.18370  -4.005  13.7853  15.2544   9.60  -4.81  -7.36
  8466.75920  -4.114  15.2623  16.7263   8.37  -4.99  -7.10
  8490.16400  -1.396  15.5013  16.9612  14.18  -4.09  -6.99
  8496.29000  -3.534  15.2674  16.7263   8.48  -4.68  -7.10
  8496.51380  -1.069  15.5024  16.9612  14.18  -4.11  -6.99
  8496.51380  -1.993  15.5024  16.9612  14.18  -4.11  -6.99
  8649.35550  -8.686  15.2075  16.6405   8.27  -3.86  -7.11
  8649.44530  -9.133  15.2075  16.6405   8.27  -3.86  -7.11
  8751.38140  -7.551  15.2075  16.6239   8.27  -3.86  -7.11
  8760.37670  -1.098  16.4395  17.8544  11.81  -5.98  -7.70
  8776.83540  -1.284  16.4395  17.8518  11.81  -5.98  -7.70
  8825.41590  -1.396  16.4499  17.8544  11.81  -5.98  -7.70
  8842.12010  -0.669  16.4499  17.8518  11.81  -5.98  -7.70
  8900.62660  -0.787  15.0573  16.4499   8.86  -4.16  -7.26
  8935.49490  -0.158  14.1046  15.4918   8.33  -2.94  -7.02
  8935.49490  -1.702  14.1046  15.4918   8.33  -2.94  -7.02
  8935.63070  -0.271  14.1046  15.4918   8.33  -2.94  -7.02
  8941.98470  -3.614  15.2544  16.6405   9.58  -6.23  -7.68
  8967.77290  -0.524  15.0573  16.4395   8.86  -4.16  -7.26
  9017.90230  -0.154  15.0754  16.4499   8.86  -4.03  -7.25
  9026.89990  -4.044  15.2674  16.6405   8.51  -4.68  -7.10
  9050.97610  -3.733  15.2544  16.6239   9.58  -6.23  -7.68
  9066.32540  -6.411  15.4085  16.7757   9.39  -3.99  -7.01
  9086.83650  -0.863  15.0754  16.4395   8.86  -4.03  -7.25
  9102.15040  -4.170  15.2544  16.6162   9.58  -6.23  -7.68
  9103.83300  -4.514  15.2623  16.6239   8.41  -4.99  -7.10
  9137.98390  -3.413  15.2674  16.6239   8.51  -4.68  -7.10
  9155.60840  -4.489  15.2623  16.6162   8.41  -4.99  -7.10
  9190.14970  -4.917  15.2674  16.6162   8.51  -4.68  -7.10
  9250.03830  -3.096  15.4357  16.7757   9.39  -3.68  -7.02
  9250.03830  -4.045  15.4357  16.7757   9.39  -3.69  -7.02
  9251.05690  -5.284  12.1471  13.4870   8.63  -5.29  -7.53
  9255.34780  -2.910  15.4357  16.7749   9.39  -3.69  -7.02
  9255.34780  -3.978  15.4357  16.7749   9.39  -3.68  -7.02
  9293.17760  -7.745  13.4922  14.8260   7.65  -3.54  -7.25
  9304.87180  -2.191  13.9353  15.2674   8.63  -4.66  -7.10
  9305.01040  -1.237  13.9353  15.2674   8.63  -4.66  -7.10
  9312.29110  -1.317  14.1046  15.4357   8.35  -3.69  -7.02
  9312.43860  -1.472  14.1046  15.4357   8.35  -3.68  -7.02
  9312.43860  -2.618  14.1046  15.4357   8.35  -3.69  -7.02
  9340.55070  -1.537  13.9353  15.2623   8.56  -4.66  -7.10
  9391.46960  -2.160  14.1563  15.4761   8.08  -3.57  -7.01
  9391.52260  -2.047  14.1563  15.4761   8.08  -3.57  -7.01
  9391.52260  -3.591  14.1563  15.4761   8.08  -3.57  -7.01
  9396.85440  -4.313  13.9353  15.2544   9.60  -4.66  -7.38
  9396.99570  -3.356  13.9353  15.2544   9.60  -4.66  -7.38
  9412.50520  -4.106  14.1749  15.4918   7.28  -2.94  -7.02
  9412.66470   1.012  12.8394  14.1563   8.62  -4.69  -7.42
  9412.66470  -0.532  12.8394  14.1563   8.62  -4.69  -7.42
  9412.77990   0.899  12.8395  14.1563   8.62  -4.69  -7.42
  9441.72500  -0.870  15.4135  16.7263   9.54  -6.15  -7.69
  9449.22130  -1.438  15.4145  16.7263   9.59  -6.18  -7.69
  9459.95090  -2.341  15.4160  16.7263   9.63  -6.17  -7.69
  9463.87330  -3.371  15.6515  16.9612  14.18  -3.71  -7.11
  9463.87330  -6.515  15.6515  16.9612  14.18  -3.71  -7.11
  9490.62860  -3.992  14.1857  15.4918   7.28  -2.94  -7.02
  9490.62860  -5.536  14.1857  15.4918   7.28  -2.94  -7.02
  9490.80880  -0.964  14.1296  15.4357   7.94  -3.68  -7.02
  9502.19310  -3.675  15.6568  16.9612  14.18  -3.69  -7.05
  9504.01790  -0.710  14.1315  15.4357   7.94  -3.69  -7.02
  9504.01790  -1.665  14.1315  15.4357   7.94  -3.68  -7.02
  9525.57030  -1.212  15.6600  16.9612  14.18  -3.31  -6.93
  9525.57030  -1.353  15.6600  16.9612  14.18  -3.31  -6.93
  9525.57030  -2.511  15.6600  16.9612  14.18  -3.31  -6.93
  9596.31410  -3.017  15.0573  16.3490   8.86  -4.16  -7.26
  9607.45450  -0.976  13.7853  15.0754   8.93  -4.03  -7.25
  9614.72630  -4.719  15.0754  16.3646   8.86  -4.03  -7.25
  9621.72200  -6.403  14.1563  15.4445   9.44  -4.69  -7.42
  9660.21310  -6.268  15.4918  16.7749   9.39  -2.94  -7.02
  9667.79870  -2.487  15.0573  16.3394   8.86  -4.16  -7.26
  9670.51080  -0.404  15.4445  16.7263   9.44  -6.31  -7.69
  9692.31830  -1.467  14.1296  15.4085   8.05  -3.99  -7.01
  9706.09470  -1.165  14.1315  15.4085   8.04  -3.99  -7.01
  9715.81050  -0.460  15.4505  16.7263   9.37  -6.34  -7.69
  9730.44930  -2.458  15.6874  16.9612  14.18  -4.47  -6.96
  9730.44930  -3.118  15.6874  16.9612  14.18  -4.47  -6.96
  9732.15430  -5.391  14.1563  15.4299   9.63  -4.69  -7.42
  9732.15430  -6.935  14.1563  15.4299   9.63  -4.69  -7.42
  9732.77960  -2.471  15.0754  16.3490   8.86  -4.03  -7.25
  9737.86110  -0.706  15.4534  16.7263   9.31  -6.25  -7.69
  9743.14720  -0.437  13.9353  15.2075   8.46  -3.86  -7.11
  9743.29910  -1.583  13.9353  15.2075   8.46  -3.86  -7.11
  9743.41310  -0.282  13.9353  15.2075   8.46  -3.86  -7.11
  9744.23930  -1.252  13.7853  15.0573   8.93  -4.16  -7.26
  9749.04750  -2.867  15.6898  16.9612  14.18  -4.21  -6.99
  9772.43370  -7.833  14.1673  15.4357   7.43  -3.68  -7.02
  9772.43370  -7.853  14.1673  15.4357   7.43  -3.69  -7.02
  9806.31960  -2.821  15.0754  16.3394   8.86  -4.03  -7.25
  9831.54780  -4.879  14.1749  15.4357   7.43  -3.68  -7.02
  9831.54780  -5.918  14.1749  15.4357   7.43  -3.69  -7.02
  9859.42390  -6.543  14.1563  15.4135   9.53  -4.69  -7.42
  9914.82690  -5.242  15.4761  16.7263   8.13  -3.57  -7.01
  9916.81360  -4.661  14.1857  15.4357   7.43  -3.69  -7.02
  9976.47800  -5.370  15.2075  16.4499   8.24  -3.86  -7.11
  9986.21430  -8.673  14.1673  15.4085   7.71  -3.99  -7.01
 10010.17200  -4.076  16.6162  17.8544  11.81  -6.25  -7.68
 10031.66800  -3.325  16.6162  17.8518  11.81  -6.26  -7.68
 10072.80500  -4.099  16.6239  17.8544  11.81  -6.25  -7.68
 10094.57100  -3.738  16.6239  17.8518  11.81  -6.26  -7.68
 10101.57800  -1.376  15.4135  16.6405   9.54  -6.15  -7.68
 10110.16000  -2.343  15.4145  16.6405   9.60  -6.18  -7.68
 10118.29400  -4.824  15.5013  16.7263   8.07  -4.09  -6.99
 10127.31400  -4.252  15.5024  16.7263   8.09  -4.11  -6.99
 10233.68900  -4.124  16.6405  17.8518  11.81  -6.26  -7.68
 10238.76100  -0.084  15.4299  16.6405   9.64  -5.67  -7.68
 10240.89100  -0.339  15.4135  16.6239   9.54  -6.15  -7.68
 10248.07100  -2.165  15.1465  16.3560   9.25  -4.06  -7.12
 10249.71000  -0.732  15.4145  16.6239   9.60  -6.18  -7.68
 10259.67100  -4.747  13.4870  14.6951   7.96  -4.24  -7.24
 10259.74500  -3.877  13.4870  14.6951   7.96  -4.24  -7.24
 10262.33600  -1.578  15.4160  16.6239   9.63  -6.17  -7.68
 10303.97800  -3.681  13.4922  14.6951   7.96  -4.24  -7.24
 10304.05300  -4.816  13.4922  14.6951   7.96  -4.24  -7.24
 10315.38700  -0.703  15.4145  16.6162   9.60  -6.18  -7.68
 10328.17500  -0.740  15.4160  16.6162   9.63  -6.17  -7.68
 10363.90400  -0.647  15.4445  16.6405   9.45  -6.31  -7.68
 10367.69800  -3.012  15.2544  16.4499   9.58  -5.98  -7.70
 10389.47300  -1.224  14.6951  15.8882   8.23  -2.81  -6.89
 10389.54900  -1.070  14.6951  15.8882   8.23  -2.81  -6.89
 10389.54900  -2.371  14.6951  15.8882   8.23  -2.81  -6.89
 10415.95000  -1.275  15.4505  16.6405   9.37  -6.34  -7.68
 10437.11200  -1.426  15.2623  16.4499   8.39  -4.99  -7.10
 10458.91700  -3.714  15.2544  16.4395   9.58  -5.98  -7.70
 10482.02300  -0.707  15.2674  16.4499   8.50  -4.68  -7.10
 10508.36600  -2.305  15.1465  16.3260   9.24  -4.04  -7.12
 10508.43300  -3.474  15.1465  16.3260   9.24  -4.06  -7.12
 10510.59800  -1.516  15.4445  16.6239   9.45  -6.31  -7.68
 10515.64000  -5.532  15.2075  16.3862   8.23  -3.86  -7.11
 10515.77200  -7.047  15.2075  16.3862   8.23  -3.86  -7.11
 10529.56200  -1.172  15.2623  16.4395   8.39  -4.99  -7.10
 10564.13200  -1.392  15.4505  16.6239   9.37  -6.34  -7.68
 10575.27300  -1.416  15.2674  16.4395   8.50  -4.68  -7.10
 10590.20600  -1.606  15.4534  16.6239   9.32  -6.25  -7.68
 10594.24700  -0.520  15.7912  16.9612  14.18  -3.09  -6.86
 10594.24700  -0.661  15.7912  16.9612  14.18  -3.09  -6.86
 10594.24700  -1.820  15.7912  16.9612  14.18  -3.09  -6.86
 10633.91300  -4.218  15.4505  16.6162   9.37  -6.34  -7.68
 10644.95300  -3.590  15.4761  16.6405   8.20  -3.57  -7.01
 10645.02100  -4.772  15.4761  16.6405   8.20  -3.57  -7.01
 10660.33400  -4.377  15.4534  16.6162   9.32  -6.25  -7.68
 10711.96300  -5.576  15.2075  16.3646   8.23  -3.86  -7.11
 10712.10100  -5.914  15.2075  16.3646   8.23  -3.86  -7.11
 10799.84100  -4.683  15.4761  16.6239   8.20  -3.57  -7.01
 10858.84600  -5.960  15.2075  16.3490   8.23  -3.86  -7.11
 10871.75300  -1.909  13.9353  15.0754   8.93  -4.03  -7.25
 10871.94200  -0.955  13.9353  15.0754   8.93  -4.03  -7.25
 10890.34600  -4.524  15.5024  16.6405   8.17  -4.11  -6.99
 10942.59200  -9.146  13.4870  14.6197   8.11  -4.39  -7.22
 10987.54700  -4.517  16.7263  17.8544  11.81  -6.25  -7.69
 11005.75200  -5.451  15.2298  16.3560   9.24  -2.82  -7.13
 11005.75200  -6.998  15.2298  16.3560   9.24  -2.82  -7.13
 11013.45100  -3.676  16.7263  17.8518  11.81  -6.26  -7.69
 11016.29100   0.253  14.1046  15.2298   8.35  -2.82  -7.13
 11016.29100  -1.291  14.1046  15.2298   8.35  -2.82  -7.13
 11016.49700   0.140  14.1046  15.2298   8.35  -2.82  -7.13
 11041.69600  -6.559  15.5013  16.6239   8.15  -4.09  -6.99
 11047.23500  -1.165  13.9353  15.0573   8.93  -4.16  -7.26
 11052.43800  -4.593  15.5024  16.6239   8.17  -4.11  -6.99
 11117.95200  -5.523  15.5013  16.6162   8.15  -4.09  -6.99
 11128.84300  -7.723  15.5024  16.6162   8.17  -4.11  -6.99
 11164.45000  -6.345  15.2544  16.3646   9.58  -6.23  -7.70
 11231.83200  -6.023  15.6713  16.7749   9.39  -2.85  -6.96
 11249.67800  -0.729  14.7929  15.8947   8.08  -2.88  -6.93
 11249.67800  -2.273  14.7929  15.8947   8.08  -2.88  -6.93
 11249.86800  -0.841  14.7929  15.8947   8.08  -2.88  -6.93
 11297.13300  -5.226  15.2674  16.3646   8.49  -4.68  -7.10
 11306.60100  -5.085  15.2298  16.3260   9.24  -2.82  -7.13
 11308.30200  -1.043  14.6951  15.7912   8.15  -3.09  -6.86
 11308.39100  -0.888  14.6951  15.7912   8.15  -3.09  -6.86
 11308.39100  -2.189  14.6951  15.7912   8.15  -3.09  -6.86
 11310.79700  -0.203  12.8394  13.9353   8.75  -4.66  -7.38
 11310.96300  -1.504  12.8395  13.9353   8.75  -4.66  -7.38
 11311.16800  -0.358  12.8395  13.9353   8.75  -4.66  -7.38
 11323.94100  -5.216  15.2544  16.3490   9.58  -6.23  -7.70
 11406.80100  -3.806  15.2623  16.3490   8.38  -4.99  -7.10
 11423.61500  -5.648  15.2544  16.3394   9.58  -6.23  -7.70
 11460.46600  -2.962  15.2674  16.3490   8.49  -4.68  -7.10
 11507.94500  -3.110  15.2623  16.3394   8.38  -4.99  -7.10
 11532.35800  -4.049  15.6515  16.7263   8.54  -3.71  -7.11
 11551.32000  -1.359  15.8882  16.9612  14.18  -2.81  -6.89
 11551.32000  -1.510  15.8882  16.9612  14.18  -2.81  -6.89
 11551.32000  -2.663  15.8882  16.9612  14.18  -2.81  -6.89
 11562.56900  -3.347  15.2674  16.3394   8.49  -4.68  -7.10
 11583.50900  -2.246  14.6197  15.6898   8.56  -4.21  -6.99
 11589.31000  -4.924  15.6568  16.7263   8.44  -3.69  -7.05
 11609.87500  -2.007  14.6197  15.6874   8.49  -4.39  -6.96
 11624.10300  -6.088  15.6600  16.7263   8.07  -3.31  -6.93
 11669.34000  -2.333  14.8260  15.8882   8.10  -2.81  -6.89
 11669.34000  -2.446  14.8260  15.8882   8.10  -2.81  -6.89
 11669.34000  -3.877  14.8260  15.8882   8.10  -2.81  -6.89
 11714.87500   0.445  12.8772  13.9353   8.43  -4.66  -7.38
 11748.39700   0.699  12.8803  13.9353   8.43  -4.66  -7.38
 11748.61800  -0.255  12.8803  13.9353   8.43  -4.66  -7.38
 11750.45500  -3.661  14.1749  15.2298   7.45  -2.82  -7.13
 11791.63100  -1.681  14.1563  15.2075   8.17  -3.86  -7.11
 11791.79800  -1.568  14.1563  15.2075   8.17  -3.86  -7.11
 11791.79800  -3.112  14.1563  15.2075   8.17  -3.86  -7.11
 11872.45900  -3.541  14.1857  15.2298   7.45  -2.82  -7.13
 11872.45900  -5.085  14.1857  15.2298   7.45  -2.82  -7.13
 11896.70300  -0.793  14.1046  15.1465   8.38  -4.06  -7.12
 11896.94400  -2.094  14.1046  15.1465   8.38  -4.06  -7.12
 11897.02900  -0.948  14.1046  15.1465   8.38  -4.04  -7.12
 11930.64900  -3.888  15.6874  16.7263   8.44  -4.47  -6.96
 11952.44500  -2.635  14.6197  15.6568   8.49  -3.69  -7.05
 11958.62100  -4.505  15.6898  16.7263   8.52  -4.21  -6.99
 11959.45100  -2.566  15.4135  16.4499   9.54  -5.98  -7.70
 11971.48100  -7.167  15.4145  16.4499   9.60  -5.98  -7.70
 11988.70800  -5.009  15.4160  16.4499   9.63  -5.98  -7.70
 12013.63200  -2.162  14.6197  15.6515   8.58  -3.71  -7.11
 12093.26900  -3.069  15.4145  16.4395   9.60  -5.98  -7.70
 12110.84900  -3.640  15.4160  16.4395   9.63  -5.98  -7.70
 12189.70400  -0.470  14.1296  15.1465   8.03  -4.04  -7.12
 12211.41300  -0.215  14.1315  15.1465   8.02  -4.06  -7.12
 12211.50300  -1.170  14.1315  15.1465   8.02  -4.04  -7.12
 12310.64400  -0.427  14.7929  15.7997   8.09  -3.08  -6.99
 12310.64400  -1.971  14.7929  15.7997   8.09  -3.08  -6.99
 12310.87100  -0.539  14.7929  15.7997   8.09  -3.08  -6.99
 12328.90700  -4.158  15.4445  16.4499   9.44  -5.98  -7.70
 12358.55100  -1.695  13.7853  14.7882   8.61  -4.37  -7.23
 12402.38500  -1.904  13.7853  14.7847   8.64  -4.36  -7.23
 12402.63100  -4.453  15.4505  16.4499   9.37  -5.98  -7.70
 12438.58600  -3.382  15.4534  16.4499   9.32  -5.98  -7.70
 12461.47100  -1.949  14.6951  15.6898   8.52  -4.21  -6.99
 12491.99000  -2.624  14.6951  15.6874   8.43  -4.24  -6.96
 12492.09900  -1.673  14.6951  15.6874   8.43  -4.24  -6.96
 12532.25100  -5.558  15.6515  16.6405   8.57  -3.71  -7.11
 12533.39800  -6.516  15.4505  16.4395   9.37  -5.98  -7.70
 12570.11600  -3.900  15.4534  16.4395   9.32  -5.98  -7.70
 12640.66900  -4.076  15.6600  16.6405   8.15  -3.31  -6.93
 12640.66900  -5.368  15.6600  16.6405   8.15  -3.31  -6.93
 12658.13100  -7.535  14.1673  15.1465   7.66  -4.06  -7.12
 12658.22700  -8.191  14.1673  15.1465   7.66  -4.04  -7.12
 12710.62800  -5.725  15.7997  16.7749   9.39  -3.08  -6.99
 12728.78600  -4.891  15.4761  16.4499   8.17  -3.57  -7.01
 12731.63900  -1.013  14.1296  15.1032   8.14  -4.00  -7.11
 12742.85300  -3.250  15.4135  16.3862   9.54  -6.15  -7.70
 12747.38600  -4.026  15.6515  16.6239   8.57  -3.71  -7.11
 12755.42100  -0.712  14.1315  15.1032   8.14  -4.00  -7.11
 12757.48800  -5.585  14.1749  15.1465   7.66  -4.06  -7.12
 12757.58600  -4.500  14.1749  15.1465   7.66  -4.04  -7.12
 12817.00700  -5.048  15.6568  16.6239   8.48  -3.69  -7.05
 12821.03400  -4.387  12.5254  13.4922   8.89  -5.17  -7.57
 12823.17200  -3.634  12.5256  13.4922   8.89  -5.17  -7.57
 12841.25700  -1.951  14.8260  15.7912   7.98  -3.09  -6.86
 12841.25700  -2.064  14.8260  15.7912   7.98  -3.09  -6.86
 12841.25700  -3.495  14.8260  15.7912   7.98  -3.09  -6.86
 12846.71900  -0.802  14.6951  15.6600   8.07  -3.31  -6.93
 12846.83400  -0.647  14.6951  15.6600   8.06  -3.31  -6.93
 12846.83400  -1.948  14.6951  15.6600   8.06  -3.31  -6.93
 12849.12900  -4.717  15.6515  16.6162   8.57  -3.71  -7.11
 12859.57500  -5.116  15.6600  16.6239   8.15  -3.31  -6.93
 12889.48500  -4.979  14.6951  15.6568   8.44  -3.69  -7.05
 12890.30000  -3.820  12.5254  13.4870   8.89  -5.17  -7.57
 12892.46100  -4.517  12.5256  13.4870   8.89  -5.17  -7.57
 12901.42800  -4.299  14.1857  15.1465   7.66  -4.06  -7.12
 12919.86900  -6.625  15.6568  16.6162   8.48  -3.69  -7.05
 12960.67100  -4.433  14.6951  15.6515   8.54  -3.71  -7.11
 12960.78900  -3.517  14.6951  15.6515   8.53  -3.71  -7.11
 12961.93100  -0.697  15.4299  16.3862   9.63  -5.67  -7.70
 13004.01500  -5.742  15.6874  16.6405   8.47  -4.47  -6.96
 13032.29000  -0.965  15.4135  16.3646   9.54  -6.15  -7.70
 13046.57700  -1.978  15.4145  16.3646   9.60  -6.18  -7.70
 13066.10100  -2.395  15.5013  16.4499   8.12  -4.09  -6.99
 13081.14600  -1.710  15.5024  16.4499   8.14  -4.11  -6.99
 13096.87700  -4.953  14.4892  15.4357   9.15  -3.68  -7.02
 13163.14700  -0.966  15.4445  16.3862   9.44  -6.31  -7.70
 13211.31400  -2.144  15.5013  16.4395   8.12  -4.09  -6.99
 13226.69600  -2.425  15.5024  16.4395   8.14  -4.11  -6.99
 13235.80200  -3.927  15.6874  16.6239   8.47  -4.47  -6.96
 13243.62200  -8.221  14.1673  15.1032   7.89  -4.00  -7.11
 13250.13400  -1.408  15.4135  16.3490   9.54  -6.15  -7.70
 13255.84400  -5.483  15.7912  16.7263   8.16  -3.09  -6.86
 13261.52300  -1.385  15.4299  16.3646   9.63  -5.67  -7.70
 13264.90200  -1.230  15.4145  16.3490   9.60  -6.18  -7.70
 13270.23700  -4.647  15.6898  16.6239   8.55  -4.21  -6.99
 13286.05600  -1.736  15.4160  16.3490   9.63  -6.17  -7.70
 13298.97600  -4.246  14.5036  15.4357   9.16  -3.69  -7.02
 13298.97600  -5.214  14.5036  15.4357   9.16  -3.68  -7.02
 13345.52500  -5.610  15.6874  16.6162   8.47  -4.47  -6.96
 13380.53400  -4.922  15.6898  16.6162   8.55  -4.21  -6.99
 13401.87900  -1.496  15.4145  16.3394   9.60  -6.18  -7.70
 13423.47300  -1.480  15.4160  16.3394   9.63  -6.17  -7.70
 13467.77800  -2.389  15.4357  16.3560   9.24  -3.69  -7.02
 13472.22400  -2.319  15.4445  16.3646   9.44  -6.31  -7.70
 13483.72600  -9.199  14.4892  15.4085   9.16  -3.99  -7.01
 13560.30400  -1.211  15.4505  16.3646   9.37  -6.34  -7.70
 13619.86400  -4.521  15.4761  16.3862   8.16  -3.57  -7.01
 13619.97500  -5.625  15.4761  16.3862   8.16  -3.57  -7.01
 13622.27700  -9.657   9.5054  10.4153   9.73  -6.49  -7.81
 13622.27700 -12.553   9.5054  10.4153   9.73  -6.49  -7.81
 13650.53000  -0.196  12.8772  13.7853   8.43  -4.81  -7.36
 13661.87200  -7.946  14.5284  15.4357   9.17  -3.69  -7.02
 13661.87200  -9.043  14.5284  15.4357   9.17  -3.68  -7.02
 13696.36800   0.104  12.8803  13.7853   8.43  -4.81  -7.36
 13698.03800  -7.176  14.5036  15.4085   9.17  -3.99  -7.01
 13705.15500  -2.115  15.4445  16.3490   9.44  -6.31  -7.70
 13796.31700  -2.635  15.4505  16.3490   9.37  -6.34  -7.70
 13840.82100  -1.688  15.4534  16.3490   9.31  -6.25  -7.70
 13921.05500  -2.513  15.4357  16.3260   9.24  -3.68  -7.02
 13921.05500  -3.682  15.4357  16.3260   9.24  -3.69  -7.02
 13944.55000  -3.608  15.4505  16.3394   9.37  -6.34  -7.70
 13951.03000  -4.458  15.4761  16.3646   8.15  -3.57  -7.01
 13951.14700  -6.365  15.4761  16.3646   8.15  -3.57  -7.01
 13990.01800  -2.177  15.4534  16.3394   9.31  -6.25  -7.70
 14008.44500  -9.370   9.5054  10.3902   9.73  -6.49  -7.81
 14043.27500  -2.188  14.6197  15.5024   8.20  -4.11  -6.99
 14060.65600  -2.548  14.6197  15.5013   8.18  -4.09  -6.99
 14081.84700  -5.200  15.8947  16.7749   9.39  -2.88  -6.93
 14109.91100  -0.133  14.7929  15.6713   8.11  -2.85  -6.96
 14109.91100  -1.677  14.7929  15.6713   8.11  -2.85  -6.96
 14110.20900  -0.245  14.7929  15.6713   8.11  -2.85  -6.96
 14201.08700  -5.019  15.4761  16.3490   8.15  -3.57  -7.01
 14342.45800  -5.432  15.4918  16.3560   9.24  -2.94  -7.02
 14342.45800  -6.979  15.4918  16.3560   9.24  -2.94  -7.02
 14375.55900  -6.389  15.5024  16.3646   8.12  -4.11  -6.99
 14453.64300  -0.088  13.9353  14.7929   8.53  -4.20  -7.23
 14453.97800  -1.234  13.9353  14.7929   8.53  -4.20  -7.23
 14454.29100   0.067  13.9353  14.7929   8.53  -4.20  -7.23
 14532.49600  -3.597  13.9353  14.7882   8.61  -4.37  -7.23
 14532.83400  -2.644  13.9353  14.7882   8.61  -4.37  -7.23
 14593.14500  -2.631  13.9353  14.7847   8.64  -4.36  -7.23
 14594.27400  -3.504  15.7912  16.6405   8.23  -3.09  -6.86
 14594.27400  -4.803  15.7912  16.6405   8.23  -3.09  -6.86
 14622.23700  -4.717  15.5013  16.3490   8.09  -4.09  -6.99
 14641.08200  -3.929  15.5024  16.3490   8.12  -4.11  -6.99
 14788.85700  -4.044  15.5013  16.3394   8.09  -4.09  -6.99
 14789.01000  -6.489  15.8882  16.7263   8.24  -2.81  -6.89
 14808.13400  -4.316  15.5024  16.3394   8.12  -4.11  -6.99
 14857.65100  -4.934  15.4918  16.3260   9.24  -2.94  -7.02
 14862.31100  -1.582  14.8260  15.6600   7.85  -3.31  -6.93
 14862.31100  -1.695  14.8260  15.6600   7.85  -3.31  -6.93
 14862.31100  -3.126  14.8260  15.6600   7.85  -3.31  -6.93
 14867.81500  -6.712  14.6197  15.4534   9.32  -4.39  -7.22
 14886.85500  -4.548  15.7912  16.6239   8.22  -3.09  -6.86
 14919.51300  -5.936  14.6197  15.4505   9.37  -4.39  -7.22
 15354.80500  -2.455  14.6951  15.5024   8.09  -4.11  -6.99
 15354.97000  -1.500  14.6951  15.5024   8.08  -4.11  -6.99
 15375.58700  -1.781  14.6951  15.5013   8.06  -4.09  -6.99
 15524.19000  -1.588  15.6515  16.4499   8.55  -3.71  -7.11
 15566.00700  -6.178  14.6197  15.4160   9.63  -4.39  -7.22
 15595.14600  -7.311  14.6197  15.4145   9.60  -4.39  -7.22
 15627.56900  -2.480  15.6568  16.4499   8.46  -3.69  -7.05
 15690.89900  -4.486  15.6600  16.4499   8.12  -3.31  -6.93
 15729.61000  -2.274  15.6515  16.4395   8.55  -3.71  -7.11
 15835.75200  -2.233  15.6568  16.4395   8.46  -3.69  -7.05
 15870.49400  -0.531  14.6951  15.4761   8.12  -3.57  -7.01
 15870.67000  -1.677  14.6951  15.4761   8.12  -3.57  -7.01
 15870.82100  -0.376  14.6951  15.4761   8.12  -3.57  -7.01
 16254.66400  -1.316  15.6874  16.4499   8.46  -4.47  -6.96
 16306.63000  -1.950  15.6898  16.4499   8.54  -4.21  -6.99
 16345.98300  -6.929  14.6951  15.4534   9.31  -4.24  -7.24
 16408.49400  -7.361  14.6951  15.4505   9.37  -4.24  -7.24
 16408.68300  -6.125  14.6951  15.4505   9.37  -4.24  -7.24
 16474.63300  -4.598  15.8882  16.6405   8.30  -2.81  -6.89
 16474.63300  -5.904  15.8882  16.6405   8.30  -2.81  -6.89
 16480.01100  -2.027  15.6874  16.4395   8.46  -4.47  -6.96
 16533.43000  -1.678  15.6898  16.4395   8.54  -4.21  -6.99
 16539.33800  -4.873  14.6951  15.4445   9.44  -4.24  -7.24
 16539.52900  -6.237  14.6951  15.4445   9.44  -4.24  -7.24
 16712.61500  -1.052  15.1465  15.8882   8.10  -2.81  -6.89
 16712.78300  -0.898  15.1465  15.8882   8.10  -2.81  -6.89
 16712.78300  -2.199  15.1465  15.8882   8.10  -2.81  -6.89
 16848.43100  -5.660  15.8882  16.6239   8.29  -2.81  -6.89
 16868.55800  -3.858  14.6951  15.4299   9.63  -4.24  -7.24
 16906.81300   0.367  12.1471  12.8803   8.68  -5.29  -7.48
 16977.18400   0.064  12.1471  12.8772   8.68  -5.29  -7.48
 17067.55500  -6.216  15.6600  16.3862   8.10  -3.31  -6.93
 17067.55500  -7.598  15.6600  16.3862   8.10  -3.31  -6.93
 17183.10700   0.906  14.1046  14.8260   8.38  -3.54  -7.25
 17183.10700  -0.638  14.1046  14.8260   8.38  -3.54  -7.25
 17183.60900   0.793  14.1046  14.8260   8.38  -3.54  -7.25
 17193.86400  -7.700  14.6951  15.4160   9.63  -4.24  -7.24
 17229.42300  -9.154  14.6951  15.4145   9.59  -4.24  -7.24
 17229.63100  -6.554  14.6951  15.4145   9.59  -4.24  -7.24
 17254.40200  -5.102  14.6951  15.4135   9.54  -4.24  -7.24
 17254.61000  -5.915  14.6951  15.4135   9.54  -4.24  -7.24
 17254.75900  -3.403  13.7853  14.5036   9.22  -4.81  -7.36
 17381.56800  -5.342  15.6515  16.3646   8.55  -3.71  -7.11
 17590.82300  -4.470  15.6600  16.3646   8.10  -3.31  -6.93
 17590.82300  -6.007  15.6600  16.3646   8.10  -3.31  -6.93
 17607.27400  -4.069  13.7853  14.4892   9.21  -4.81  -7.36
 17734.42800   0.245  14.7929  15.4918   8.13  -2.94  -7.02
 17734.42800  -1.299  14.7929  15.4918   8.13  -2.94  -7.02
 17734.90000   0.132  14.7929  15.4918   8.13  -2.94  -7.02
 17771.24900  -3.952  15.6515  16.3490   8.55  -3.71  -7.11
 17906.85100  -5.274  15.6568  16.3490   8.45  -3.69  -7.05
 17990.05200  -4.941  15.6600  16.3490   8.10  -3.31  -6.93
 18017.96800  -4.342  15.6515  16.3394   8.55  -3.71  -7.11
 18036.98600  -0.473  15.2075  15.8947   7.88  -2.88  -6.93
 18036.98600  -2.017  15.2075  15.8947   7.88  -2.88  -6.93
 18037.37600  -0.585  15.2075  15.8947   7.88  -2.88  -6.93
 18103.35500  -5.333  15.6713  16.3560   9.24  -2.85  -6.96
 18103.35500  -6.879  15.6713  16.3560   9.24  -2.85  -6.96
 18157.37600  -4.320  15.6568  16.3394   8.45  -3.69  -7.05
 18302.47600  -6.275  15.6874  16.3646   8.45  -4.47  -6.96
 18663.81000  -5.210  13.4922  14.1563   7.89  -4.69  -7.42
 18735.05700  -3.638  15.6874  16.3490   8.45  -4.47  -6.96
 18804.12600  -4.369  15.6898  16.3490   8.53  -4.21  -6.99
 18817.68200  -3.752  15.7912  16.4499   8.20  -3.09  -6.86
 18826.47100  -1.721  15.2298  15.8882   8.04  -2.81  -6.89
 18826.47100  -1.834  15.2298  15.8882   8.03  -2.81  -6.89
 18826.47100  -3.265  15.2298  15.8882   8.04  -2.81  -6.89
 18858.86000  -4.955  14.4892  15.1465   9.16  -4.04  -7.12
 18931.96500  -4.727  15.6713  16.3260   9.23  -2.85  -6.96
 19009.47000  -4.022  15.6874  16.3394   8.45  -4.47  -6.96
 19038.50300  -2.908  14.1749  14.8260   7.65  -3.54  -7.25
 19040.67900  -0.396  14.7847  15.4357   8.38  -3.68  -7.02
 19064.53400  -1.220  14.8260  15.4761   7.94  -3.54  -7.01
 19064.75300  -1.107  14.8260  15.4761   7.94  -3.54  -7.01
 19064.75300  -2.651  14.8260  15.4761   7.94  -3.54  -7.01
 19080.58100  -3.675  15.6898  16.3394   8.53  -4.21  -6.99
 19137.67100  -0.883  14.6197  15.2674   8.53  -4.39  -7.10
 19144.92700  -0.135  14.7882  15.4357   8.34  -3.69  -7.02
 19144.92700  -1.090  14.7882  15.4357   8.34  -3.68  -7.02
 19225.44600  -0.896  15.1465  15.7912   7.99  -3.09  -6.86
 19225.66800  -0.740  15.1465  15.7912   7.99  -3.09  -6.86
 19225.66800  -2.042  15.1465  15.7912   7.99  -3.09  -6.86
 19280.54400  -4.191  14.5036  15.1465   9.17  -4.06  -7.12
 19280.76700  -5.156  14.5036  15.1465   9.17  -4.04  -7.12
 19282.96100  -0.583  14.7929  15.4357   8.15  -3.69  -7.02
 19283.51900  -0.738  14.7929  15.4357   8.15  -3.68  -7.02
 19283.51900  -1.884  14.7929  15.4357   8.15  -3.69  -7.02
 19289.21100  -1.237  14.6197  15.2623   8.43  -4.39  -7.10
 19360.86000  -2.769  14.1857  14.8260   7.65  -3.54  -7.25
 19360.86000  -4.313  14.1857  14.8260   7.65  -3.54  -7.25
 19471.76300  -0.889  14.1563  14.7929   8.28  -4.20  -7.23
 19472.33200  -0.776  14.1563  14.7929   8.28  -4.20  -7.23
 19472.33200  -2.321  14.1563  14.7929   8.28  -4.20  -7.23
 19514.86600  -0.272  16.3260  16.9612  14.18  -5.94  -7.65
 19514.86600  -1.432  16.3260  16.9612  14.18  -5.94  -7.65
 19530.87800  -3.123  14.6197  15.2544   9.59  -4.39  -7.22
 19869.44300  -0.999  14.7847  15.4085   8.42  -3.99  -7.01
 19982.99100  -0.682  14.7882  15.4085   8.38  -3.99  -7.01
 20037.94400  -5.469  14.8260  15.4445   9.44  -3.54  -7.25
 20052.77500  -8.114  14.5284  15.1465   9.17  -4.06  -7.12
 20053.01600  -9.217  14.5284  15.1465   9.17  -4.04  -7.12
 20188.35000  -7.284  14.4892  15.1032   9.17  -4.00  -7.11
 20481.17400  -0.137  16.3560  16.9612  14.18  -5.93  -7.65
 20522.92500  -4.456  14.8260  15.4299   9.63  -3.54  -7.25
 20522.92500  -6.000  14.8260  15.4299   9.63  -3.54  -7.25
 20672.60300  -8.382  14.5036  15.1032   9.18  -4.00  -7.11
 20832.89900  -6.863  15.7912  16.3862   8.18  -3.09  -6.86
 20832.89900  -8.266  15.7912  16.3862   8.18  -3.09  -6.86
 20900.18900  -8.414  13.9353  14.5284   9.22  -4.66  -7.38
 20928.93500  -0.145  15.2075  15.7997   7.90  -3.08  -6.99
 20928.93500  -1.689  15.2075  15.7997   7.90  -3.08  -6.99
 20929.46100  -0.257  15.2075  15.7997   7.90  -3.08  -6.99
 20990.41100   0.139  14.1046  14.6951   8.46  -4.24  -7.24
 20991.16000  -1.162  14.1046  14.6951   8.46  -4.24  -7.24
 20991.46900  -0.016  14.1046  14.6951   8.46  -4.24  -7.24
 21097.20900  -5.603  14.8260  15.4135   9.53  -3.54  -7.25
 21131.32300  -1.832  15.1032  15.6898   8.50  -4.00  -6.99
 21219.23100  -1.566  15.1032  15.6874   8.41  -4.00  -6.96
 21617.82500  -3.777  15.7912  16.3646   8.18  -3.09  -6.86
 21617.82500  -5.124  15.7912  16.3646   8.18  -3.09  -6.86
 21658.75800  -1.662  14.6951  15.2674   8.48  -4.24  -7.10
 21659.08700  -0.708  14.6951  15.2674   8.48  -4.24  -7.10
 21799.68700  -2.646   9.5054  10.0740   9.09  -5.68  -7.69
 21809.91200  -4.416  13.9353  14.5036   9.22  -4.66  -7.38
 21810.67400  -3.459  13.9353  14.5036   9.21  -4.66  -7.38
 21853.05800  -0.994  14.6951  15.2623   8.37  -4.24  -7.10
 21920.09100   0.493  14.1296  14.6951   8.18  -4.24  -7.24
 21990.34200   0.748  14.1315  14.6951   8.18  -4.24  -7.24
 21990.68100  -0.206  14.1315  14.6951   8.18  -4.24  -7.24
 22064.89100  -4.802  15.8882  16.4499   8.27  -2.81  -6.89
 22076.97500  -1.314  15.2298  15.7912   7.90  -2.82  -6.86
 22076.97500  -1.427  15.2298  15.7912   7.90  -2.82  -6.86
 22076.97500  -2.858  15.2298  15.7912   7.90  -2.82  -6.86
 22088.58500  -2.946   9.5054  10.0665   9.09  -5.68  -7.69
 22163.75400  -3.814  14.6951  15.2544   9.58  -4.24  -7.24
 22164.09800  -2.859  14.6951  15.2544   9.58  -4.24  -7.24
 22223.91200  -4.236  15.7912  16.3490   8.18  -3.09  -6.86
 22281.61700  -5.052  15.7997  16.3560   9.24  -3.08  -6.99
 22281.61700  -6.597  15.7997  16.3560   9.24  -3.08  -6.99
 22376.17300  -4.078  13.9353  14.4892   9.21  -4.66  -7.38
 22392.21100  -2.504  15.1032  15.6568   8.42  -3.69  -7.05
 22607.92900  -1.954  15.1032  15.6515   8.52  -3.71  -7.11
 22814.82000  -1.553  15.1465  15.6898   8.45  -4.04  -6.99
 22917.32700  -2.230  15.1465  15.6874   8.35  -4.04  -6.96
 22917.64300  -1.277  15.1465  15.6874   8.35  -4.06  -6.96
 23482.71200  -6.677  14.1673  14.6951   7.96  -4.24  -7.24
 23483.09900  -8.653  14.1673  14.6951   7.96  -4.24  -7.24
 23550.25500  -4.410  15.7997  16.3260   9.23  -3.08  -6.99
 23826.96800  -4.734  14.1749  14.6951   7.96  -4.24  -7.24
 23827.36600  -3.605  14.1749  14.6951   7.96  -4.24  -7.24
 24140.18600  -0.605  15.1465  15.6600   7.85  -3.31  -6.93
 24140.53600  -0.450  15.1465  15.6600   7.85  -3.31  -6.93
 24140.53600  -1.751  15.1465  15.6600   7.85  -3.31  -6.93
 24191.76700  -0.213  14.6951  15.2075   8.21  -3.86  -7.11
 24192.17700  -1.359  14.6951  15.2075   8.20  -3.86  -7.11
 24192.87900  -0.057  14.6951  15.2075   8.20  -3.86  -7.11
 24291.63700  -4.856  15.1465  15.6568   8.36  -3.69  -7.05
 24334.03200  -3.408  14.1857  14.6951   7.96  -4.24  -7.24
 24545.71200  -3.952  15.1465  15.6515   8.47  -3.71  -7.11
 24546.07300  -3.008  15.1465  15.6515   8.47  -3.71  -7.11
 24887.78000  -7.311  15.8882  16.3862   8.26  -2.81  -6.89
 24887.78000  -8.723  15.8882  16.3862   8.26  -2.81  -6.89
 25292.13300  -0.107  14.1296  14.6197   8.27  -4.39  -7.22
 25386.15800   0.194  14.1315  14.6197   8.27  -4.39  -7.22
 25759.52600  -9.897  15.4135  15.8947   9.53  -2.88  -6.93
 26016.27000  -4.940  15.8882  16.3646   8.26  -2.81  -6.89
 26016.27000  -6.146  15.8882  16.3646   8.26  -2.81  -6.89
 26670.77200  -5.068  15.4299  15.8947   9.62  -2.88  -6.93
 26670.77200  -6.612  15.4299  15.8947   9.62  -2.88  -6.93
 26721.95800   0.220  15.2075  15.6713   7.92  -2.85  -6.96
 26721.95800  -1.324  15.2075  15.6713   7.92  -2.85  -6.96
 26722.81500   0.107  15.2075  15.6713   7.92  -2.85  -6.96
 26867.88800  -4.307  15.8947  16.3560   9.24  -2.88  -6.93
 26867.88800  -5.852  15.8947  16.3560   9.24  -2.88  -6.93
 26899.11800  -5.406  15.8882  16.3490   8.26  -2.81  -6.89
 27200.57600  -0.174  14.6197  15.0754   8.88  -4.03  -7.22
 27392.41400  -0.710  15.4357  15.8882   8.03  -2.81  -6.89
 27392.41400  -0.865  15.4357  15.8882   8.03  -2.81  -6.89
 27392.41400  -2.011  15.4357  15.8882   8.03  -2.81  -6.89
 27396.09200  -7.277  14.1673  14.6197   8.10  -4.39  -7.22
 27536.90300  -5.491  15.4445  15.8947   9.43  -2.88  -6.93
 27647.17100  -5.989  13.4870  13.9353   8.34  -4.66  -7.38
 27648.39500  -4.087  13.4870  13.9353   8.35  -4.66  -7.38
 27971.28400  -4.002  13.4922  13.9353   8.34  -4.66  -7.38
 27972.53600  -5.636  13.4922  13.9353   8.35  -4.66  -7.38
 28326.34200  -0.402  14.6197  15.0573   8.88  -4.16  -7.22
 28369.58800   0.824  14.7929  15.2298   8.16  -2.82  -7.13
 28369.58800  -0.720  14.7929  15.2298   8.16  -2.82  -7.13
 28370.79600   0.712  14.7929  15.2298   8.16  -2.82  -7.13
 28412.64300  -2.905  16.3394  16.7757   9.40  -6.41  -7.70
 28734.40100  -3.778  15.8947  16.3260   9.23  -2.88  -6.93
 28813.15800  -0.834  15.2298  15.6600   7.73  -2.82  -6.93
 28813.15800  -0.947  15.2298  15.6600   7.73  -2.82  -6.93
 28813.15800  -2.378  15.2298  15.6600   7.73  -2.82  -6.93
 29048.58200  -3.954  16.3490  16.7757   9.40  -6.41  -7.70
 29101.00700  -3.005  16.3490  16.7749   9.40  -6.41  -7.70
 29614.35400  -0.201  15.4761  15.8947   7.68  -2.88  -6.93
 29614.35400  -1.745  15.4761  15.8947   7.68  -2.88  -6.93
 29614.88000  -0.313  15.4761  15.8947   7.68  -2.88  -6.93
 30153.59200  -6.765  16.3646  16.7757   9.40  -6.42  -7.70
 30210.08600  -6.236  16.3646  16.7749   9.40  -6.42  -7.70
 30968.75900  -5.465  16.3260  16.7263   9.25  -5.94  -7.69
 31053.98900  -1.260  15.1032  15.5024   8.03  -4.00  -6.99
 31139.10800  -1.594  15.1032  15.5013   8.01  -4.00  -6.99
 31271.28300  -1.159  15.4918  15.8882   8.00  -2.81  -6.89
 31271.28300  -1.272  15.4918  15.8882   8.00  -2.81  -6.89
 31271.28300  -2.703  15.4918  15.8882   8.00  -2.81  -6.89
 31889.12600  -6.528  16.3862  16.7749   9.40  -6.41  -7.70
 32092.73800  -5.818  15.4135  15.7997   9.53  -3.08  -6.99
 32446.24800  -7.050  13.7853  14.1673   8.35  -4.81  -7.36
 32488.84700  -0.437  14.8260  15.2075   8.06  -3.54  -7.11
 32490.11400  -0.324  14.8260  15.2075   8.06  -3.54  -7.11
 32490.11400  -1.868  14.8260  15.2075   8.06  -3.54  -7.11
 32592.75300  -1.205  14.6951  15.0754   8.85  -4.03  -7.24
 32593.49700  -0.251  14.6951  15.0754   8.85  -4.03  -7.24
 32760.97300  -0.680  15.0573  15.4357   8.81  -3.68  -7.02
 33519.55100  -4.167  15.4299  15.7997   9.63  -3.08  -6.99
 33519.55100  -5.711  15.4299  15.7997   9.63  -3.08  -6.99
 34222.47000  -0.420  14.6951  15.0573   8.86  -4.16  -7.24
 34257.65100   0.403  14.7847  15.1465   8.41  -4.04  -7.12
 34407.98100  -0.227  15.0754  15.4357   8.81  -3.69  -7.02
 34407.98100  -1.181  15.0754  15.4357   8.81  -3.68  -7.02
 34595.87300   0.677  14.7882  15.1465   8.37  -4.06  -7.12
 34596.59100  -0.277  14.7882  15.1465   8.37  -4.04  -7.12
 34831.03500  -1.868  15.1465  15.5024   7.88  -4.04  -6.99
 34831.76300  -0.914  15.1465  15.5024   7.88  -4.06  -6.99
 34860.42700  -0.535  15.4357  15.7912   7.89  -3.09  -6.86
 34860.42700  -0.691  15.4357  15.7912   7.89  -3.09  -6.86
 34860.42700  -1.836  15.4357  15.7912   7.89  -3.09  -6.86
 34899.12500  -4.863  15.4445  15.7997   9.43  -3.08  -6.99
 34928.63300  -0.864  12.5254  12.8803   8.92  -5.17  -7.48
 34938.15400  -1.188  15.1465  15.5013   7.85  -4.04  -6.99
 34944.50400   0.090  12.5256  12.8803   8.91  -5.17  -7.48
 35049.25100   0.328  14.7929  15.1465   8.21  -4.06  -7.12
 35051.09500  -0.973  14.7929  15.1465   8.21  -4.06  -7.12
 35051.83200   0.173  14.7929  15.1465   8.21  -4.04  -7.12
 35230.32200  -0.169  12.5254  12.8772   8.92  -5.17  -7.48
 35293.87800  -1.677  15.0573  15.4085   8.83  -3.99  -7.01
 35394.59200  -6.351  15.1032  15.4534   9.31  -4.00  -7.11
 35540.55300  -4.063  10.0665  10.4153   9.64  -5.68  -7.69
 35688.99700  -5.546  15.1032  15.4505   9.36  -4.00  -7.11
 35803.51900   0.441  13.7853  14.1315   8.45  -4.81  -7.33
 35992.22800   0.137  13.7853  14.1296   8.45  -4.81  -7.33
 36314.89700  -4.589  10.0740  10.4153   9.64  -5.68  -7.69
 36871.26000  -1.170  16.4395  16.7757   9.40  -5.98  -7.70
 37212.86500  -1.049  15.0754  15.4085   8.83  -3.99  -7.01
 37602.67700  -0.295  15.1465  15.4761   7.94  -3.57  -7.01
 37603.52600  -1.441  15.1465  15.4761   7.94  -3.57  -7.01
 37604.37500  -0.139  15.1465  15.4761   7.94  -3.57  -7.01
 38051.51100  -1.934  16.4499  16.7757   9.40  -5.98  -7.70
 38141.51900  -0.933  16.4499  16.7749   9.40  -5.98  -7.70
 38294.78000  -4.725  10.0665  10.3902   9.64  -5.68  -7.69
 38304.61000   0.189  15.4761  15.7997   7.71  -3.08  -6.99
 38304.61000  -1.355  15.4761  15.7997   7.71  -3.08  -6.99
 38305.49100   0.076  15.4761  15.7997   7.71  -3.08  -6.99
 38912.61500  -0.200  14.7847  15.1032   8.46  -4.00  -7.11
 39195.31100  -4.819  10.0740  10.3902   9.64  -5.68  -7.69
 39350.51400   0.125  14.7882  15.1032   8.43  -4.00  -7.11
 39413.18800  -5.226  16.3260  16.6405   9.26  -5.94  -7.68
 39466.40100   0.072  12.5254  12.8395   9.05  -5.17  -7.57
 39486.66600  -1.074  12.5256  12.8395   9.05  -5.17  -7.57
 39488.69300   0.227  12.5256  12.8394   9.05  -5.17  -7.57
 39625.80500  -5.806  15.1032  15.4160   9.63  -4.00  -7.11
 39815.18100  -8.103  15.1032  15.4145   9.59  -4.00  -7.11
 40386.17100  -6.694  15.1465  15.4534   9.30  -4.04  -7.12
 40769.92000  -6.932  15.1465  15.4505   9.36  -4.04  -7.12
 40770.91700  -5.865  15.1465  15.4505   9.36  -4.06  -7.12
 41394.86400  -0.651  15.4918  15.7912   7.85  -2.94  -6.86
 41394.86400  -0.764  15.4918  15.7912   7.85  -2.94  -6.86
 41394.86400  -2.195  15.4918  15.7912   7.85  -2.94  -6.86
 41555.57300  -5.412  13.4870  13.7853   8.35  -4.81  -7.36
 41587.38100  -4.336  15.1465  15.4445   9.44  -4.04  -7.12
 41588.41900  -5.545  15.1465  15.4445   9.44  -4.06  -7.12
 41622.35600  -5.056  16.3260  16.6239   9.26  -5.94  -7.68
 41652.35600  -9.687  14.5284  14.8260   9.17  -3.54  -7.25
 43564.33200  -3.945  16.3560  16.6405   9.26  -5.93  -7.68
 43596.24800   0.762  15.2075  15.4918   7.95  -2.94  -7.02
 43596.24800  -0.782  15.2075  15.4918   7.95  -2.94  -7.02
 43598.53000   0.649  15.2075  15.4918   7.95  -2.94  -7.02
 43733.37100  -3.215  15.1465  15.4299   9.63  -4.06  -7.12
 44066.08900  -1.171  15.4085  15.6898   8.46  -3.99  -6.99
 44450.10800  -0.871  15.4085  15.6874   8.36  -3.99  -6.96
 45989.42800  -6.204  15.1465  15.4160   9.62  -4.04  -7.12
 46244.70900  -9.129  15.1465  15.4145   9.59  -4.04  -7.12
 46245.99300  -6.993  15.1465  15.4145   9.59  -4.06  -7.12
 46425.09900  -4.323  15.1465  15.4135   9.53  -4.04  -7.12
 46426.39300  -5.383  15.1465  15.4135   9.53  -4.06  -7.12
 48073.75500  -5.616  15.4135  15.6713   9.53  -2.85  -6.96
 48774.32700  -0.964  15.4357  15.6898   8.42  -3.68  -6.99
 49245.22900  -0.681  15.4357  15.6874   8.32  -3.69  -6.96
 49245.22900  -1.635  15.4357  15.6874   8.32  -3.68  -6.96
 49494.88500  -3.111  13.9353  14.1857   8.34  -4.66  -7.38
 49928.95100  -2.371  15.4085  15.6568   8.37  -3.69  -7.01
 50313.15300  -0.167  15.2298  15.4761   7.85  -2.82  -7.01
 50314.67300  -0.054  15.2298  15.4761   7.85  -2.82  -7.01
 50314.67300  -1.598  15.2298  15.4761   7.85  -2.82  -7.01
 51014.30800  -1.602  15.4085  15.6515   8.48  -3.71  -7.01
 51347.85800  -3.825  15.4299  15.6713   9.63  -2.85  -6.96
 51347.85800  -5.369  15.4299  15.6713   9.63  -2.85  -6.96
 51729.92700  -3.298  13.9353  14.1749   8.34  -4.66  -7.38
 51734.21000  -4.454  13.9353  14.1749   8.34  -4.66  -7.38
 52264.58300  -1.697   9.8368  10.0740   9.57  -5.68  -7.69
 52719.89600  -0.747   9.8389  10.0740   9.57  -5.68  -7.69
 52809.56900   0.023  15.6600  15.8947   7.50  -2.88  -6.93
 52809.56900   0.135  15.6600  15.8947   7.50  -2.88  -6.93
 52809.56900  -1.409  15.6600  15.8947   7.50  -2.88  -6.93
 53430.50000  -7.570  13.9353  14.1673   8.34  -4.66  -7.38
 53435.06900  -7.282  13.9353  14.1673   8.34  -4.66  -7.38
 53956.48800  -1.012   9.8368  10.0665   9.57  -5.68  -7.69
 54319.72600   0.459  15.2075  15.4357   7.98  -3.69  -7.02
 54323.26800   0.304  15.2075  15.4357   7.98  -3.68  -7.02
 54323.26800  -0.842  15.2075  15.4357   7.98  -3.69  -7.02
 54657.68900  -4.458  15.4445  15.6713   9.43  -2.85  -6.96
 55260.42500  -0.203  15.4357  15.6600   7.72  -3.31  -6.93
 55260.42500  -0.359  15.4357  15.6600   7.72  -3.31  -6.93
 55260.42500  -1.505  15.4357  15.6600   7.72  -3.31  -6.93
 56060.52800  -4.830  15.4357  15.6568   8.32  -3.68  -7.02
 57163.86500  -0.534  15.6713  15.8882   7.97  -2.81  -6.89
 57163.86500  -0.647  15.6713  15.8882   7.97  -2.81  -6.89
 57163.86500  -2.078  15.6713  15.8882   7.97  -2.81  -6.89
 57432.49300  -2.249  15.4357  15.6515   8.45  -3.69  -7.02
 57432.49300  -3.203  15.4357  15.6515   8.45  -3.68  -7.02
 57711.98500  -4.333  15.2298  15.4445   9.43  -2.82  -7.13
 60207.13300  -3.630  14.4892  14.6951   9.17  -4.24  -7.24
 61926.78300  -3.279  15.2298  15.4299   9.63  -2.82  -7.13
 61926.78300  -4.823  15.2298  15.4299   9.63  -2.82  -7.13
 63187.50400  -0.663  13.9353  14.1315   8.45  -4.66  -7.33
 63193.89400   0.291  13.9353  14.1315   8.45  -4.66  -7.33
 63499.35000   0.714  15.4761  15.6713   7.75  -2.85  -6.96
 63499.35000  -0.830  15.4761  15.6713   7.75  -2.85  -6.96
 63501.77000   0.601  15.4761  15.6713   7.74  -2.85  -6.96
 63777.64900   0.032  13.9353  14.1296   8.45  -4.66  -7.33
 64726.12800  -3.009  14.5036  14.6951   9.18  -4.24  -7.24
 64729.06200  -3.962  14.5036  14.6951   9.18  -4.24  -7.24
 67468.46100  -4.365  15.2298  15.4135   9.53  -2.82  -7.13
 68371.45500  -1.158  15.2544  15.4357   9.57  -3.69  -7.02
 68371.45500  -2.112  15.2544  15.4357   9.57  -3.68  -7.02
 71507.68000   0.656  15.2623  15.4357   8.23  -3.68  -7.02
 73199.34800   0.337  13.9353  14.1046   8.62  -4.66  -7.38
 73207.92500  -0.809  13.9353  14.1046   8.62  -4.66  -7.38
 73217.03900   0.491  13.9353  14.1046   8.62  -4.66  -7.38
 73562.91900   0.424  14.6197  14.7882   8.50  -4.37  -7.22
 73670.25200   0.898  15.2674  15.4357   8.37  -3.69  -7.02
 73670.25200  -0.057  15.2674  15.4357   8.37  -3.68  -7.02
 73703.38200   0.020  15.4918  15.6600   7.65  -2.94  -6.93
 73703.38200   0.133  15.4918  15.6600   7.65  -2.94  -6.93
 73703.38200  -1.411  15.4918  15.6600   7.65  -2.94  -6.93
 74336.36100  -8.809  14.5284  14.6951   9.18  -4.24  -7.24
 74340.23100  -9.430  14.5284  14.6951   9.18  -4.24  -7.24
 75143.74600   0.105  14.6197  14.7847   8.53  -4.36  -7.22
 75491.57800   0.512  15.1032  15.2674   8.46  -4.00  -7.10
 77703.04900  -4.959  16.6162  16.7757   9.41  -6.35  -7.68
 77905.89700   0.234  15.1032  15.2623   8.34  -4.00  -7.10
 80415.65500  -1.599  15.2544  15.4085   9.58  -3.99  -7.01
 81643.72600  -4.888  16.6239  16.7757   9.41  -6.35  -7.68
 82004.02100  -1.525  15.1032  15.2544   9.58  -4.00  -7.11
 82059.21600  -4.085  16.6239  16.7749   9.41  -6.35  -7.68
 84789.48900   0.173  15.2623  15.4085   8.29  -3.99  -7.01
 87847.19500   0.464  15.2674  15.4085   8.42  -3.99  -7.01
 88691.22000   0.562  15.6600  15.7997   7.54  -3.08  -6.93
 88691.22000   0.675  15.6600  15.7997   7.54  -3.08  -6.93
 88691.22000  -0.869  15.6600  15.7997   7.54  -3.08  -6.93
 91729.05300  -6.611  16.6405  16.7757   9.41  -6.35  -7.68
 92253.86200  -5.407  16.6405  16.7749   9.41  -6.35  -7.68
 94993.20000  -4.134  14.4892  14.6197   9.18  -4.39  -7.22
